%% logfile from robot Karla (10)
% Karla (10)
%  1    time 2.007 sec
%  2  3  4  5   (mission 0), state 2, entered (thread 1, line 1), events 0x0 (bit-flags)
%  6  7  8 Gyro x,y,z [deg/s]: 1.0376 5.67627 -6.98853
%  9 10 Wheel velocity [m/s] left, right: -0.0116 -0.0112
% 11 12 13 14 Pose x,y,h,tilt [m,m,rad,rad]: -0.00742998 -0.000129301 -0.00259112 0.00280174
% 15 .. 35 Edge sensor: left -4.180000 0, right -2.068738 0, values 585 831 893 902 867 780 734 580, white 1, used 1, LEDhigh=0, xb=0 xw=0 xbc=0 xwc=0 lvl=0 lvr=0       whitelevel=[884 1280 1410 1427 1392 1268 1229 999]       blacklevel=[119 163 174 182 180 171 150 124]
% 15 16 Get data time [us]: 100 +ctrl 480
2.014 2 1 1 0 -1.403809 9.765625 -6.195068 -0.0096 -0.0092 -0.0074 -0.0001 -0.002591 0.001680 -4.1800 0 -2.0687 0  586 831 953 898 857 782 730 595  1 1 0 0 0 0 0 0 0 100 480 
2.021 2 1 1 0 0.213623 8.911133 -3.936768 -0.0691 -0.0707 -0.0082 -0.0001 -0.002591 0.000304 -4.1800 0 -2.0687 0  583 828 902 898 866 775 731 579  1 1 0 0 0 0 0 0 0 100 470 
2.028 2 1 1 0 -2.075195 -12.847900 11.413574 -0.0916 -0.0482 -0.0084 -0.0001 0.000000 0.000112 -4.1800 0 -2.0687 0  590 826 896 906 865 765 732 582  1 1 0 0 0 0 0 0 0 100 450 
2.035 2 1 1 0 4.028320 -27.038574 -4.058838 -0.0349 -0.0261 -0.0084 -0.0001 0.000000 0.004605 -4.1800 0 -2.0687 0  596 833 907 905 875 784 733 582  1 1 0 0 0 0 0 0 0 100 440 
2.042 2 1 1 0 -1.586914 -19.805908 2.288818 -0.0217 -0.0177 -0.0084 -0.0001 0.000000 0.006785 -4.1800 0 -2.0687 0  597 844 918 910 877 784 741 586  1 1 0 0 0 0 0 0 0 100 440 
2.049 2 1 1 0 -1.220703 -13.275146 -3.448486 -0.0157 -0.0137 -0.0084 -0.0001 0.000000 0.008900 -4.1800 0 -2.0687 0  600 841 923 920 882 788 749 589  1 1 0 0 0 0 0 0 0 100 440 
2.056 2 1 1 0 2.288818 -8.209229 -2.319336 -0.0120 -0.0108 -0.0084 -0.0001 0.000000 0.009992 -4.1800 0 -2.0687 0  622 847 926 922 883 798 750 591  1 1 0 0 0 0 0 0 0 100 440 
2.063 2 1 1 0 -3.448486 -0.976562 -4.119873 -0.0100 -0.0092 -0.0086 -0.0001 -0.002591 0.010521 -4.1800 0 -2.0687 0  619 848 927 916 891 800 747 593  1 1 0 0 0 0 0 0 0 100 460 
2.070 2 1 1 0 1.098633 4.943848 -6.408691 -0.0088 -0.0578 -0.0090 -0.0001 -0.002591 0.010043 -4.1800 0 -2.0687 0  596 851 928 930 885 779 750 587  1 1 0 0 0 0 0 0 0 100 470 
2.077 2 1 1 0 -1.037598 8.026123 -5.645752 -0.1181 -0.0791 -0.0096 -0.0001 0.000000 0.008999 -4.1800 0 -2.0687 0  615 846 922 929 885 798 760 590  1 1 0 0 0 0 0 0 0 100 470 
2.084 2 1 1 0 -4.272461 -11.108398 8.880615 -0.0779 -0.0398 -0.0100 -0.0001 0.005182 0.008626 -4.1800 0 -2.0687 0  606 839 921 923 886 797 745 587  1 1 0 0 0 0 0 0 0 100 490 
2.091 2 1 1 0 3.906250 -32.867432 -4.058838 0.0739 -0.0394 -0.0100 -0.0001 0.000000 0.013358 -4.1800 0 -2.0687 0  649 851 934 943 895 796 766 598  1 1 0 0 0 0 0 0 0 100 440 
2.098 2 1 1 0 -0.305176 -27.709961 2.960205 0.0466 -0.0285 -0.0100 -0.0001 0.000000 0.016376 -4.1800 0 -2.0687 0  577 863 946 948 902 811 766 603  1 1 0 0 0 0 0 0 0 100 440 
2.105 2 1 1 0 -1.617432 -21.911621 -2.990723 0.0257 -0.0189 -0.0100 -0.0001 0.000000 0.019464 -4.1800 0 -2.0687 0  614 872 950 950 912 812 769 606  1 1 0 0 0 0 0 0 0 100 440 
2.112 2 1 1 0 3.387451 -16.510010 -1.586914 0.0177 -0.0141 -0.0100 -0.0001 0.000000 0.021657 -4.1800 0 -2.0687 0  627 872 962 956 916 824 774 604  1 1 0 0 0 0 0 0 0 100 440 
2.119 2 1 1 0 -3.875732 -3.295898 -4.364014 0.0133 -0.0112 -0.0100 -0.0001 0.000000 0.022603 -4.1800 0 -2.0687 0  627 879 960 957 917 820 772 616  1 1 0 0 0 0 0 0 0 100 440 
2.126 2 1 1 0 1.190186 3.662109 -3.906250 -0.0112 -0.0092 -0.0102 -0.0001 0.002591 0.022064 -4.1800 0 -2.0687 0  631 878 957 967 919 820 762 615  1 1 0 0 0 0 0 0 0 100 470 
2.133 2 1 1 0 0.061035 5.676270 -3.021240 -0.0112 -0.0084 -0.0104 -0.0001 0.000000 0.021357 -4.1800 0 -2.0687 0  622 878 961 955 918 820 771 607  1 1 0 0 0 0 0 0 0 100 440 
2.140 2 1 1 0 -1.556396 4.516602 -1.068115 -0.0112 -0.0570 -0.0106 -0.0001 -0.002591 0.020484 -4.1800 0 -2.0687 0  636 875 960 952 912 815 751 607  1 1 0 0 0 0 0 0 0 100 470 
2.147 2 1 1 0 2.044678 0.915527 1.495361 -0.0112 -0.0398 -0.0106 -0.0001 -0.002591 0.019957 -4.1800 0 -2.0687 0  613 885 961 947 910 817 751 614  1 1 0 0 0 0 0 0 0 100 470 
2.154 2 1 1 0 -1.098633 -0.793457 3.204346 -0.0145 -0.0233 -0.0108 -0.0001 0.000000 0.019873 -4.1800 0 -2.0687 0  605 876 956 950 914 815 774 612  1 1 0 0 0 0 0 0 0 100 440 
2.161 2 1 1 0 0.976562 0.366211 0.732422 -0.0145 -0.0165 -0.0108 -0.0001 0.000000 0.019863 -4.1800 0 -2.0687 0  605 858 959 953 915 817 787 609  1 1 0 0 0 0 0 0 0 100 440 
2.168 2 1 1 0 0.061035 -0.549316 0.915527 -0.0257 -0.0161 -0.0112 -0.0001 0.000000 0.019790 -4.1800 0 -2.0687 0  621 876 960 956 914 810 766 605  1 1 0 0 0 0 0 0 0 100 480 
2.175 2 1 1 0 -0.457764 -1.892090 1.037598 -0.0257 -0.0161 -0.0112 -0.0001 0.000000 0.019862 -4.1800 0 -2.0687 0  615 876 957 955 920 817 781 608  1 1 0 0 0 0 0 0 0 100 450 
2.182 2 1 1 0 0.152588 -4.669189 0.732422 -0.0466 -0.0161 -0.0114 -0.0001 0.002591 0.020191 -4.1800 0 -2.0687 0  619 876 932 927 900 800 764 620  1 1 0 0 0 0 0 0 0 100 470 
2.189 2 1 1 0 -0.610352 -11.352539 1.281738 -0.0297 -0.0145 -0.0114 -0.0001 0.002591 0.021476 -4.1800 0 -2.0687 0  621 881 957 945 922 810 772 614  1 1 0 0 0 0 0 0 0 100 480 
2.196 2 1 1 0 0.640869 -12.847900 5.462646 -0.0197 -0.0129 -0.0116 -0.0001 0.000000 0.022628 -4.1800 0 -2.0687 0  624 883 969 964 918 816 778 617  1 1 0 0 0 0 0 0 0 100 440 
2.203 2 1 1 0 0.305176 -8.392334 3.753662 -0.0145 -0.0129 -0.0116 -0.0001 0.000000 0.023862 -4.1800 0 -2.0687 0  635 880 968 964 927 822 783 614  1 1 0 0 0 0 0 0 0 100 440 
2.210 2 1 1 0 0.579834 -4.150391 2.166748 -0.0116 -0.0129 -0.0116 -0.0001 0.000000 0.024509 -4.1800 0 -2.0687 0  626 862 976 956 917 827 778 596  1 1 0 0 0 0 0 0 0 100 440 
2.217 2 1 1 0 0.091553 -0.640869 0.457764 -0.0096 -0.0129 -0.0118 -0.0001 0.002591 0.024693 -4.1800 0 -2.0687 0  629 889 970 956 910 825 794 621  1 1 0 0 0 0 0 0 0 100 470 
2.224 2 1 1 0 -0.671387 -12.573242 0.305176 -0.0096 -0.0149 -0.0120 -0.0001 0.000000 0.025403 -4.1800 0 -2.0687 0  633 925 975 974 945 827 784 621  1 1 0 0 0 0 0 0 0 100 440 
2.231 2 1 1 0 1.129150 -30.853271 0.793457 -0.0096 -0.0149 -0.0120 -0.0001 0.000000 0.029087 -4.1800 0 -2.0687 0  637 893 980 979 928 831 793 618  1 1 0 0 0 0 0 0 0 100 440 
2.238 2 1 1 0 0.213623 -27.984619 0.335693 -0.0096 -0.0149 -0.0120 -0.0001 0.000000 0.032375 -4.1800 0 -2.0687 0  644 894 991 987 944 840 799 634  1 1 0 0 0 0 0 0 0 100 440 
2.245 2 1 1 0 0.000000 -24.047852 -0.762939 -0.0096 -0.0149 -0.0120 -0.0001 0.000000 0.035371 -4.1800 0 -2.0687 0  653 910 999 993 948 848 807 637  1 1 0 0 0 0 0 0 0 100 440 
2.252 2 1 1 0 0.152588 -20.416260 -2.502441 -0.0096 -0.0120 -0.0120 -0.0001 0.000000 0.037920 -4.1800 0 -2.0687 0  652 913 1003 999 945 849 803 643  1 1 0 0 0 0 0 0 0 100 440 
2.259 2 1 1 0 -2.197266 -16.998291 -2.593994 -0.0092 -0.0100 -0.0120 -0.0001 0.000000 0.039937 -4.1800 0 -2.0687 0  659 918 1007 1007 961 857 816 639  1 1 0 0 0 0 0 0 0 100 440 
2.266 2 1 1 0 -0.518799 -13.153076 -5.340576 -0.0080 -0.0084 -0.0120 -0.0001 0.000000 0.041584 -4.1800 0 -2.0687 0  662 928 1015 1004 970 861 813 651  1 1 0 0 0 0 0 0 0 100 440 
2.273 2 1 1 0 -0.915527 -10.437012 -5.767822 -0.0068 -0.0072 -0.0120 -0.0001 0.000000 0.042781 -4.1800 0 -2.0687 0  665 926 1017 1009 967 863 812 648  1 1 0 0 0 0 0 0 0 100 440 
2.280 2 1 1 0 -0.976562 -10.559082 -3.845215 -0.0060 -0.0064 -0.0120 -0.0001 0.000000 0.043759 -4.1800 0 -2.0687 0  664 931 1024 1009 978 869 817 647  1 1 0 0 0 0 0 0 0 100 440 
2.287 2 1 1 0 0.030518 -12.603760 -1.342773 -0.0056 -0.0056 -0.0120 -0.0001 0.000000 0.044864 -4.1800 0 -2.0687 0  664 936 1024 1014 970 870 823 648  1 1 0 0 0 0 0 0 0 100 440 
2.294 2 1 1 0 -0.610352 -14.404297 2.288818 -0.0048 -0.0052 -0.0120 -0.0001 0.000000 0.046225 -4.1800 0 -2.0687 0  672 945 1032 1017 976 874 825 655  1 1 0 0 0 0 0 0 0 100 440 
2.301 2 1 1 0 0.213623 -14.617920 2.563477 -0.0044 -0.0048 -0.0120 -0.0001 0.000000 0.047796 -4.1800 0 -2.0687 0  669 945 1037 1023 976 877 829 661  1 1 0 0 0 0 0 0 0 100 440 
2.308 2 1 1 0 -0.396729 -14.648438 0.793457 -0.0040 -0.0044 -0.0120 -0.0001 0.000000 0.049473 -4.1800 0 -2.0687 0  674 947 1040 1030 986 880 833 661  1 1 0 0 0 0 0 0 0 100 440 
2.315 2 1 1 0 -0.427246 -16.052246 -1.281738 -0.0040 -0.0040 -0.0120 -0.0001 0.000000 0.051309 -4.1800 0 -2.0687 0  683 954 1083 1039 996 893 840 673  1 1 0 0 0 0 0 0 0 100 440 
2.322 2 1 1 0 -0.091553 -16.967773 -2.105713 -0.0036 -0.0036 -0.0120 -0.0001 0.000000 0.053311 -4.1800 0 -2.0687 0  680 964 1034 1043 993 888 842 653  1 1 0 0 0 0 0 0 0 100 440 
2.329 2 1 1 0 0.091553 -13.214111 4.180908 0.0036 0.0036 -0.0116 -0.0001 0.000000 0.054546 -4.1800 0 -2.0687 0  684 963 1038 1047 1021 890 842 676  1 1 0 0 0 0 0 0 0 100 440 
2.336 2 1 1 0 -0.396729 -6.866455 1.831055 0.0036 0.0466 -0.0114 -0.0001 0.002591 0.055412 -4.1800 0 -2.0687 0  689 971 1068 1047 992 896 845 663  1 1 0 0 0 0 0 0 0 100 480 
2.343 2 1 1 0 0.244141 -8.972168 -1.007080 0.0233 0.0410 -0.0112 -0.0001 0.000000 0.056345 -4.1800 0 -2.0687 0  693 970 1060 1051 1012 883 849 677  1 1 0 0 0 0 0 0 0 100 440 
2.350 2 1 1 0 0.854492 -11.138916 8.758545 0.0233 0.0237 -0.0112 -0.0001 0.000000 0.057003 -4.1800 0 -2.0687 0  691 968 1065 1053 1013 912 852 676  1 1 0 0 0 0 0 0 0 100 440 
2.357 2 1 1 0 1.220703 -8.636475 12.634277 0.0365 0.0181 -0.0108 -0.0001 0.000000 0.057750 -4.1800 0 -2.0687 0  696 974 1077 1058 1012 907 852 700  1 1 0 0 0 0 0 0 0 100 440 
2.364 2 1 1 0 1.129150 -7.324219 1.495361 0.0313 0.0181 -0.0108 -0.0001 0.000000 0.058905 -4.1800 0 -2.0687 0  701 980 1085 1054 1013 943 855 666  1 1 0 0 0 0 0 0 0 100 440 
2.371 2 1 1 0 1.251221 -9.765625 9.063721 0.0305 0.0181 -0.0106 -0.0001 -0.002591 0.059684 -4.1800 0 -2.0687 0  667 984 1045 1060 1025 865 852 679  1 1 0 0 0 0 0 0 0 100 460 
2.378 2 1 1 0 0.549316 -3.967285 10.681152 0.0570 0.0209 -0.0102 -0.0001 -0.002591 0.059910 -4.1800 0 -2.0687 0  698 984 1069 1057 1022 916 854 682  1 1 0 0 0 0 0 0 0 100 480 
2.385 2 1 1 0 0.640869 -5.218506 0.671387 0.0341 0.0209 -0.0100 -0.0001 -0.005182 0.060666 -4.1800 0 -2.0687 0  694 984 1053 1060 1019 902 851 683  1 1 0 0 0 0 0 0 0 100 470 
2.392 2 1 1 0 0.396729 -12.603760 2.502441 0.0635 0.0285 -0.0096 -0.0001 -0.005182 0.061784 -4.1800 0 -2.0687 0  696 979 1095 1063 1021 881 856 682  1 1 0 0 0 0 0 0 0 100 480 
2.399 2 1 1 0 0.061035 -3.082275 1.586914 0.0663 0.0546 -0.0092 -0.0001 -0.005182 0.062559 -4.1800 0 -2.0687 0  706 988 1050 1064 1018 906 855 681  1 1 0 0 0 0 0 0 0 100 470 
2.406 2 1 1 0 0.183105 3.112793 1.892090 0.0446 0.0514 -0.0088 -0.0001 -0.005182 0.061793 -4.1800 0 -2.0687 0  691 984 1082 1057 1019 906 857 690  1 1 0 0 0 0 0 0 0 100 470 
2.413 2 1 1 0 -0.213623 -0.793457 0.213623 0.0643 0.0582 -0.0084 -0.0001 -0.005182 0.061763 -4.1800 0 -2.0687 0  703 985 1080 1064 1023 903 846 689  1 1 0 0 0 0 0 0 0 100 470 
2.420 2 1 1 0 0.549316 8.972168 1.190186 0.0787 0.0747 -0.0080 -0.0001 -0.005182 0.060886 -4.1800 0 -0.8126 0  708 979 1077 1064 1016 902 853 680  1 1 0 0 0 0 0 0 0 100 480 
2.427 2 1 1 0 0.091553 8.972168 1.800537 0.0723 0.0851 -0.0072 -0.0001 -0.005182 0.059256 -4.1800 0 -0.8126 0  689 976 1070 1057 1008 904 853 682  1 1 0 0 0 0 0 0 0 100 480 
2.434 2 1 1 0 0.335693 3.448486 2.197266 0.0904 0.1004 -0.0068 -0.0001 -0.005182 0.058752 -4.1800 0 -0.8126 0  684 972 1055 1054 1005 903 852 685  1 1 0 0 0 0 0 0 0 100 480 
2.441 2 1 1 0 0.793457 11.901855 -0.366211 0.0876 0.0719 -0.0060 -0.0001 -0.005182 0.057520 -4.1800 0 -0.8126 0  697 963 1058 1054 1004 911 818 683  1 1 0 0 0 0 0 0 0 100 470 
2.448 2 1 1 0 1.007080 7.690430 6.500244 0.0884 0.0799 -0.0056 -0.0002 -0.005182 0.055716 -4.1800 0 -0.8126 0  666 963 1062 1035 996 904 856 681  1 1 0 0 0 0 0 0 0 100 480 
2.455 2 1 1 0 1.342773 11.871338 1.007080 0.1137 0.1149 -0.0048 -0.0002 -0.005182 0.054682 -4.1800 0 -0.8126 0  664 965 1036 1043 990 892 838 679  1 1 0 0 0 0 0 0 0 100 470 
2.462 2 1 1 0 0.762939 19.012451 -0.213623 0.1145 0.0779 -0.0040 -0.0002 -0.005182 0.052372 -4.1800 0 -0.8126 0  676 953 1042 1024 986 874 849 675  1 1 0 0 0 0 0 0 0 100 490 
2.469 2 1 1 0 0.244141 8.178711 4.882812 0.0972 0.1438 -0.0032 -0.0002 -0.005182 0.050449 -4.1800 0 -0.8126 0  688 954 1045 1043 974 861 833 672  1 1 0 0 0 0 0 0 0 100 480 
2.476 2 1 1 0 1.312256 7.446289 -1.647949 0.1474 0.1213 -0.0024 -0.0002 -0.005182 0.049992 -4.1800 0 -0.8126 0  645 947 1033 974 965 868 803 672  1 1 0 0 0 0 0 0 0 100 480 
2.483 2 1 1 0 2.746582 21.820068 0.396729 0.1004 0.1044 -0.0014 -0.0002 -0.007773 0.047837 -4.1800 0 -0.8126 0  645 929 1027 1010 960 850 825 675  1 1 0 0 0 0 0 0 0 100 480 
2.490 2 1 1 0 -1.464844 28.137207 9.368896 0.0815 0.1237 -0.0008 -0.0002 -0.005182 0.043697 -4.1800 0 -0.8126 0  649 922 1012 1023 943 845 840 679  1 1 0 0 0 0 0 0 0 100 480 
2.497 2 1 1 0 1.312256 18.646240 3.112793 0.1161 0.1261 -0.0000 -0.0002 -0.005182 0.041405 -4.1800 0 -0.8126 0  680 882 1002 1000 927 845 811 662  1 1 0 0 0 0 0 0 0 100 470 
2.504 2 1 1 0 0.915527 12.573242 6.164551 0.1723 0.1297 0.0010 -0.0002 -0.007773 0.039452 -4.1800 0 -0.8126 0  661 908 994 946 924 832 814 663  1 1 0 0 0 0 0 0 0 100 490 
2.511 2 1 1 0 -1.525879 20.233154 -2.166748 0.1659 0.1209 0.0022 -0.0002 -0.007773 0.037977 -4.1800 0 -0.8126 0  630 905 983 972 918 827 828 661  1 1 0 0 0 0 0 0 0 100 470 
2.518 2 1 1 0 2.197266 29.510498 4.943848 0.1076 0.1181 0.0030 -0.0002 -0.007773 0.033981 -4.1800 0 -0.8126 0  634 887 974 981 903 814 794 653  1 1 0 0 0 0 0 0 0 100 490 
2.525 2 1 1 0 -1.556396 20.141602 3.509521 0.0843 0.1337 0.0036 -0.0002 -0.005182 0.031409 -4.1800 0 -0.8126 0  615 861 962 927 894 812 791 644  1 1 0 0 0 0 0 0 0 100 470 
2.532 2 1 1 0 -0.244141 11.505127 6.164551 0.1743 0.1611 0.0048 -0.0002 -0.005182 0.029356 -4.1800 0 -0.8126 0  637 877 955 942 897 806 777 649  1 1 0 0 0 0 0 0 0 100 490 
2.539 2 1 1 0 0.122070 17.944336 -6.713867 0.2088 0.1189 0.0060 -0.0002 -0.010364 0.027928 -4.1800 0 -0.8126 0  618 873 946 925 879 801 796 652  1 1 0 0 0 0 0 0 0 100 480 
2.546 2 1 1 0 0.000000 24.353027 0.610352 0.1253 0.1237 0.0068 -0.0002 -0.010364 0.025057 -4.1800 0 -0.8126 0  615 843 935 920 874 799 788 639  1 1 0 0 0 0 0 0 0 100 480 
2.553 2 1 1 0 -0.213623 15.594482 3.753662 0.1016 0.1731 0.0078 -0.0002 -0.007773 0.022172 -4.1800 0 -0.8126 0  602 856 926 906 871 789 773 633  1 1 0 0 0 0 0 0 0 100 480 
2.560 2 1 1 0 1.800537 19.744873 -4.394531 0.1707 0.1353 0.0088 -0.0003 -0.005182 0.020452 -4.1800 0 -0.8126 0  597 848 918 913 859 791 786 627  1 1 0 0 0 0 0 0 0 100 480 
2.567 2 1 1 0 2.441406 21.911621 -10.253906 0.1659 0.1289 0.0100 -0.0003 -0.010364 0.018292 -4.1800 0 -0.8126 0  594 851 909 893 866 786 766 604  1 1 0 0 0 0 0 0 0 100 480 
2.574 2 1 1 0 -0.213623 23.345947 2.624512 0.1197 0.1731 0.0110 -0.0003 -0.007773 0.014588 -4.1800 0 -0.8126 0  586 832 901 907 852 781 745 633  1 1 0 0 0 0 0 0 0 100 490 
2.581 2 1 1 0 0.213623 21.118164 -4.211426 0.1623 0.1550 0.0120 -0.0003 -0.005182 0.012622 -4.1800 0 -0.8126 0  576 817 883 876 855 780 770 611  1 1 0 0 0 0 0 0 0 100 480 
2.588 2 1 1 0 0.305176 24.505615 -7.751465 0.1554 0.1317 0.0131 -0.0003 -0.007773 0.010087 -4.1800 0 -0.8126 0  572 784 871 869 833 770 749 606  1 1 0 0 0 0 0 0 0 100 480 
2.595 2 1 1 0 -0.610352 24.780273 -1.190186 0.1345 0.1562 0.0143 -0.0003 -0.007773 0.006647 -4.1800 0 -0.8126 0  567 795 858 856 849 769 742 595  1 1 0 0 0 0 0 0 0 100 470 
2.602 2 1 1 0 1.861572 18.096924 -2.075195 0.1454 0.1791 0.0153 -0.0003 -0.005182 0.004239 -4.1800 0 -0.8126 0  553 774 857 857 827 761 730 581  1 1 0 0 0 0 0 0 0 100 490 
2.609 2 1 1 0 0.640869 23.315430 -3.021240 0.1285 0.1462 0.0161 -0.0003 -0.005182 0.001868 -4.1800 0 -0.8126 0  550 785 844 854 836 760 732 575  1 1 0 0 0 0 0 0 0 100 480 
2.616 2 1 1 0 -0.061035 21.362305 -3.784180 0.1659 0.1165 0.0171 -0.0003 -0.007773 -0.000893 -4.1800 0 -0.8126 0  544 755 840 848 841 758 729 617  1 1 0 0 0 0 0 0 0 100 480 
2.623 2 1 1 0 0.793457 14.923096 -3.021240 0.1117 0.1498 0.0181 -0.0003 -0.005182 -0.002904 -4.1800 0 -0.8126 0  539 756 839 845 838 758 731 586  1 1 0 0 0 0 0 0 0 100 490 
2.630 2 1 1 0 0.000000 8.422852 -0.549316 0.1530 0.1691 0.0193 -0.0003 -0.005182 -0.004138 -4.1800 0 -0.8126 0  541 753 831 851 822 755 728 576  1 1 0 0 0 0 0 0 0 100 490 
2.637 2 1 1 0 0.122070 13.702393 -9.490967 0.1474 0.1237 0.0201 -0.0003 -0.005182 -0.005101 -4.1800 0 -0.8126 0  534 757 837 846 819 751 721 593  1 1 0 0 0 0 0 0 0 100 470 
2.644 2 1 1 0 0.823975 15.441895 -2.655029 0.1374 0.1285 0.0211 -0.0003 -0.007773 -0.007214 -4.1800 0 -0.8126 0  527 736 819 850 855 755 720 587  1 1 0 0 0 0 0 0 0 100 490 
2.651 2 1 1 0 0.183105 10.345459 -3.051758 0.1129 0.1639 0.0221 -0.0003 -0.005182 -0.008672 -4.1800 0 -0.8126 0  527 741 827 844 816 749 717 545  1 1 0 0 0 0 0 0 0 100 490 
2.658 2 1 1 0 0.457764 10.009766 -4.791260 0.1104 0.1317 0.0229 -0.0003 -0.005182 -0.009692 -4.1800 0 -0.8126 0  522 755 829 845 841 749 714 563  1 1 0 0 0 0 0 0 0 100 480 
2.665 2 1 1 0 0.000000 7.843018 -3.295898 0.1378 0.0960 0.0237 -0.0004 -0.005182 -0.010609 -4.1800 0 -0.8126 0  524 747 836 844 824 751 719 572  1 1 0 0 0 0 0 0 0 100 470 
2.672 2 1 1 0 -0.671387 4.394531 1.770020 0.0787 0.1482 0.0245 -0.0004 -0.005182 -0.011820 -4.1800 0 -0.8126 0  530 766 832 845 828 748 717 554  1 1 0 0 0 0 0 0 0 100 490 
2.679 2 1 1 0 -0.030518 1.861572 1.892090 0.1735 0.1221 0.0255 -0.0004 -0.002591 -0.011905 -4.1800 0 -0.8126 0  525 753 846 852 824 750 712 572  1 1 0 0 0 0 0 0 0 100 490 
2.686 2 1 1 0 -0.122070 0.457764 -2.655029 0.1032 0.1000 0.0261 -0.0004 -0.005182 -0.011824 -4.1800 0 -0.8126 0  530 749 847 851 823 754 717 570  1 1 0 0 0 0 0 0 0 100 480 
2.693 2 1 1 0 -0.183105 -2.227783 2.502441 0.1442 0.1229 0.0271 -0.0004 -0.002591 -0.011681 -4.1800 0 -0.8126 0  529 763 863 848 822 761 710 570  1 1 0 0 0 0 0 0 0 100 490 
2.700 2 1 1 0 -0.427246 2.532959 -4.180908 0.0843 0.1064 0.0277 -0.0004 -0.005182 -0.011586 -4.1800 0 -0.8126 0  529 763 863 849 817 736 715 566  1 1 0 0 0 0 0 0 0 100 480 
2.707 2 1 1 0 -0.915527 -2.990723 1.617432 0.1145 0.1104 0.0285 -0.0004 -0.005182 -0.011568 -4.1800 0 -0.8126 0  524 772 862 851 819 743 713 575  1 1 0 0 0 0 0 0 0 100 480 
2.714 2 1 1 0 -0.427246 -3.265381 -0.640869 0.1016 0.1141 0.0293 -0.0004 -0.005182 -0.010786 -4.1800 0 -0.8126 0  540 771 854 854 823 748 711 576  1 1 0 0 0 0 0 0 0 100 480 
2.721 2 1 1 0 -0.823975 -5.737305 0.427246 0.0956 0.0960 0.0299 -0.0004 -0.002591 -0.010201 -4.1800 0 -0.8126 0  532 779 893 858 827 745 717 579  1 1 0 0 0 0 0 0 0 100 480 
2.728 2 1 1 0 -0.213623 -5.187988 -1.831055 0.1048 0.0976 0.0307 -0.0004 -0.002591 -0.009289 -4.1800 0 -0.8126 0  554 782 865 862 824 740 719 580  1 1 0 0 0 0 0 0 0 100 470 
2.735 2 1 1 0 -0.244141 -3.295898 1.098633 0.0964 0.1048 0.0315 -0.0004 -0.002591 -0.008959 -4.1800 0 -0.8126 0  559 784 871 862 825 734 722 580  1 1 0 0 0 0 0 0 0 100 480 
2.742 2 1 1 0 -1.068115 -9.155273 1.983643 0.0843 0.1193 0.0321 -0.0004 -0.000000 -0.008155 -4.1800 0 -0.8126 0  545 789 863 868 822 751 726 585  1 1 0 0 0 0 0 0 0 100 480 
2.749 2 1 1 0 0.152588 -10.772705 1.251221 0.0948 0.1020 0.0327 -0.0004 -0.002591 -0.006809 -4.1800 0 -0.8126 0  553 796 882 863 822 743 729 583  1 1 0 0 0 0 0 0 0 100 470 
2.756 2 1 1 0 0.000000 -11.535645 0.549316 0.1181 0.0896 0.0335 -0.0004 -0.002591 -0.005216 -4.1800 0 -0.8126 0  543 798 882 870 831 730 732 584  1 1 0 0 0 0 0 0 0 100 470 
2.763 2 1 1 0 -0.732422 -6.500244 3.326416 0.0759 0.0932 0.0341 -0.0004 -0.005182 -0.004440 -4.1800 0 -0.8126 0  538 794 886 877 828 751 732 584  1 1 0 0 0 0 0 0 0 100 480 
2.770 2 1 1 0 -0.335693 -8.697510 -1.586914 0.0896 0.0831 0.0347 -0.0004 -0.002591 -0.003250 -4.1800 0 -0.8126 0  546 806 883 879 835 777 738 588  1 1 0 0 0 0 0 0 0 100 480 
2.777 2 1 1 0 -0.946045 -14.129639 0.885010 0.0916 0.0916 0.0353 -0.0004 -0.005182 -0.001860 -4.1800 0 -0.8126 0  536 813 885 881 830 744 739 588  1 1 0 0 0 0 0 0 0 100 470 
2.784 2 1 1 0 -0.427246 -19.866943 2.685547 0.0655 0.1145 0.0359 -0.0004 -0.002591 0.000365 -4.1800 0 -0.8126 0  561 810 888 880 835 767 749 594  1 1 0 0 0 0 0 0 0 100 480 
2.791 2 1 1 0 -0.885010 -15.747070 -7.965088 0.1498 0.0819 0.0369 -0.0004 -0.005182 0.002893 -4.1800 0 -0.8126 0  576 816 898 885 840 767 749 593  1 1 0 0 0 0 0 0 0 100 480 
2.798 2 1 1 0 0.244141 -6.774902 5.218506 0.0815 0.0747 0.0374 -0.0004 -0.005182 0.003752 -4.1800 0 -0.8126 0  582 806 889 882 841 770 760 605  1 1 0 0 0 0 0 0 0 100 470 
2.805 2 1 1 0 -1.129150 -5.798340 -1.800537 0.0578 0.0988 0.0380 -0.0004 -0.002591 0.004242 -4.1800 0 -0.8126 0  546 813 897 885 845 770 754 596  1 1 0 0 0 0 0 0 0 100 480 
2.812 2 1 1 0 1.922607 -10.589600 2.197266 0.0940 0.0872 0.0388 -0.0004 -0.002591 0.005369 -4.1800 0 -0.8126 0  537 816 904 861 844 771 745 596  1 1 0 0 0 0 0 0 0 100 480 
2.819 2 1 1 0 -0.610352 -16.937256 -1.556396 0.0775 0.1012 0.0392 -0.0004 -0.002591 0.007308 -4.1800 0 -0.8126 0  607 819 902 894 850 795 746 599  1 1 0 0 0 0 0 0 0 100 480 
2.826 2 1 1 0 -1.007080 -19.165039 1.922607 0.1562 0.1141 0.0402 -0.0004 -0.005182 0.009627 -4.1800 0 -0.8126 0  580 814 907 879 857 790 769 605  1 1 0 0 0 0 0 0 0 100 480 
2.833 2 1 1 0 0.091553 -4.058838 -7.446289 0.0948 0.0787 0.0410 -0.0004 -0.005182 0.011179 -4.1800 0 -0.8126 0  588 825 905 887 855 794 776 611  1 1 0 0 0 0 0 0 0 100 490 
2.840 2 1 1 0 -1.525879 -5.676270 2.807617 0.0598 0.1088 0.0416 -0.0004 -0.002591 0.010879 -4.1800 0 -0.8126 0  562 814 901 871 857 791 765 605  1 1 0 0 0 0 0 0 0 100 480 
2.847 2 1 1 0 1.739502 -11.901855 -4.547119 0.0687 0.1177 0.0422 -0.0004 -0.000000 0.012605 -4.1800 0 -0.8126 0  611 816 901 912 854 796 730 609  1 1 0 0 0 0 0 0 0 100 480 
2.854 2 1 1 0 -0.396729 -17.028809 -2.014160 0.1374 0.1149 0.0430 -0.0004 -0.000000 0.014359 -4.1800 0 -0.8126 0  555 795 903 883 861 798 774 615  1 1 0 0 0 0 0 0 0 100 480 
2.861 2 1 1 0 -1.800537 -14.129639 -11.505127 0.1394 0.1080 0.0438 -0.0004 -0.005182 0.016710 -4.1800 0 -0.8126 0  590 830 901 907 860 805 767 615  1 1 0 0 0 0 0 0 0 100 480 
2.868 2 1 1 0 2.441406 0.946045 -1.800537 0.1394 0.1125 0.0446 -0.0004 -0.005182 0.016893 -4.1800 0 -0.8126 0  569 825 901 890 865 806 815 612  1 1 0 0 0 0 0 0 0 100 480 
2.875 2 1 1 0 -2.197266 -0.457764 -3.265381 0.0703 0.1205 0.0454 -0.0004 -0.000000 0.016640 -4.1800 0 -0.8126 0  564 785 906 875 854 804 757 616  1 1 0 0 0 0 0 0 0 100 480 
2.882 2 1 1 0 3.234863 -6.713867 -3.601074 0.1213 0.1313 0.0462 -0.0004 -0.000000 0.017196 -4.1800 0 -0.8126 0  541 822 896 885 870 806 796 617  1 1 0 0 0 0 0 0 0 100 450 
2.889 2 1 1 0 0.061035 -10.894775 -5.676270 0.1382 0.1462 0.0472 -0.0004 -0.002591 0.018668 -4.1800 0 -0.8126 0  558 788 902 896 882 810 788 619  1 1 0 0 0 0 0 0 0 100 480 
2.896 2 1 1 0 -0.305176 6.225586 -3.936768 0.1305 0.1181 0.0480 -0.0004 -0.002591 0.018865 -4.1800 0 -0.8126 0  557 807 903 883 857 811 822 620  1 1 0 0 0 0 0 0 0 100 480 
2.903 2 1 1 0 0.457764 5.493164 -1.220703 0.0851 0.1137 0.0486 -0.0004 -0.000000 0.017414 -4.1800 0 -0.8126 0  557 810 893 885 880 810 766 622  1 1 0 0 0 0 0 0 0 100 440 
2.910 2 1 1 0 -0.061035 -0.762939 -3.356934 0.0924 0.1414 0.0496 -0.0004 0.002591 0.017541 -4.1800 0 -0.8126 0  538 809 894 899 875 808 783 624  1 1 0 0 0 0 0 0 0 100 480 
2.917 2 1 1 0 1.647949 -9.582520 -5.950928 0.1590 0.1578 0.0506 -0.0004 -0.000000 0.018538 -4.1800 0 -0.8126 0  556 761 892 885 890 802 807 632  1 1 0 0 0 0 0 0 0 100 480 
2.924 2 1 1 0 0.305176 -5.737305 -9.033203 0.1847 0.1253 0.0518 -0.0004 -0.000000 0.019904 -4.1800 0 -0.8126 0  560 818 895 894 885 801 802 639  1 1 0 0 0 0 0 0 0 100 480 
2.931 2 1 1 0 2.136230 8.636475 -0.183105 0.1273 0.1482 0.0526 -0.0004 -0.000000 0.018690 -4.1800 0 -0.8126 0  557 809 886 888 880 809 785 623  1 1 0 0 0 0 0 0 0 100 450 
2.938 2 1 1 0 -0.671387 4.333496 0.457764 0.1249 0.1723 0.0536 -0.0004 0.002591 0.017790 -4.1800 0 -0.8126 0  546 779 889 884 874 801 782 629  1 1 0 0 0 0 0 0 0 100 480 
2.945 2 1 1 0 1.525879 4.913330 -9.246826 0.1775 0.1052 0.0546 -0.0004 -0.000000 0.017668 -4.1800 0 -0.8126 0  547 785 885 884 897 798 776 623  1 1 0 0 0 0 0 0 0 100 440 
2.952 2 1 1 0 0.579834 6.011963 1.190186 0.1012 0.1699 0.0556 -0.0004 0.002591 0.016421 -4.1800 0 -0.8126 0  550 805 882 884 871 798 775 626  1 1 0 0 0 0 0 0 0 100 480 
2.959 2 1 1 0 -0.396729 1.617432 -2.258301 0.1735 0.1514 0.0568 -0.0004 0.002591 0.016316 -4.1800 0 -0.8126 0  552 805 878 886 858 796 775 613  1 1 0 0 0 0 0 0 0 100 480 
2.966 2 1 1 0 1.037598 8.453369 -3.997803 0.1892 0.1349 0.0578 -0.0004 -0.000000 0.015640 -4.1800 0 -0.8126 0  546 749 882 887 849 794 777 640  1 1 0 0 0 0 0 0 0 100 470 
2.973 2 1 1 0 -0.793457 7.873535 3.143311 0.0976 0.1643 0.0588 -0.0004 0.002591 0.014059 -4.1800 0 -0.8126 0  550 805 875 884 865 794 773 589  1 1 0 0 0 0 0 0 0 100 480 
2.980 2 1 1 0 -0.610352 2.166748 -2.410889 0.1884 0.1590 0.0600 -0.0004 0.002591 0.013959 -4.1800 0 -0.8126 0  549 764 875 881 878 785 772 630  1 1 0 0 0 0 0 0 0 100 490 
2.987 2 1 1 0 -0.793457 5.310059 -3.631592 0.1659 0.1486 0.0610 -0.0004 -0.000000 0.013745 -4.1800 0 -0.8126 0  551 793 877 879 875 788 771 635  1 1 0 0 0 0 0 0 0 100 470 
2.994 2 1 1 0 -0.335693 11.627197 1.953125 0.1048 0.1530 0.0621 -0.0004 0.002591 0.012018 -4.1800 0 -0.8126 0  549 782 862 878 871 791 768 677  1 1 0 0 0 0 0 0 0 100 480 
3.001 2 1 1 0 0.213623 6.713867 -5.645752 0.1598 0.1474 0.0629 -0.0004 0.002591 0.011203 -4.1800 0 -0.8126 0  550 779 862 875 859 779 762 627  1 1 0 0 0 0 0 0 0 100 480 
3.008 2 1 1 0 -0.213623 3.295898 -1.190186 0.1606 0.1663 0.0641 -0.0004 0.002591 0.010548 -4.1800 0 -0.8126 0  550 772 863 874 849 771 766 625  1 1 0 0 0 0 0 0 0 100 470 
3.015 2 1 1 0 0.122070 3.997803 1.617432 0.1141 0.1759 0.0653 -0.0004 0.002591 0.009845 -4.1800 0 -0.8126 0  545 770 863 873 852 778 765 620  1 1 0 0 0 0 0 0 0 100 490 
3.022 2 1 1 0 1.037598 7.232666 -7.446289 0.1751 0.1317 0.0665 -0.0004 0.002591 0.009335 -4.1800 0 -0.8126 0  543 768 867 873 838 751 769 625  1 1 0 0 0 0 0 0 0 100 480 
3.029 2 1 1 0 1.861572 7.354736 0.518799 0.1518 0.1731 0.0675 -0.0004 0.005182 0.008181 -4.1800 0 -0.8126 0  546 769 858 868 844 771 762 610  1 1 0 0 0 0 0 0 0 100 490 
3.036 2 1 1 0 0.427246 3.387451 -2.349854 0.1574 0.1643 0.0685 -0.0004 0.002591 0.007631 -4.1800 0 -0.8126 0  548 768 860 862 845 766 766 637  1 1 0 0 0 0 0 0 0 100 490 
3.043 2 1 1 0 0.946045 5.279541 -2.380371 0.1498 0.1550 0.0697 -0.0004 0.002591 0.007458 -4.1800 0 -0.8126 0  545 766 856 867 853 795 759 642  1 1 0 0 0 0 0 0 0 100 490 
3.050 2 1 1 0 -0.274658 5.401611 1.861572 0.1390 0.1606 0.0707 -0.0004 0.005182 0.006489 -4.1800 0 -0.8126 0  547 773 860 868 849 771 770 626  1 1 0 0 0 0 0 0 0 100 490 
3.057 2 1 1 0 -0.030518 1.007080 0.762939 0.1566 0.1402 0.0715 -0.0004 0.005182 0.006275 -4.1800 0 -0.8126 0  542 769 862 860 842 780 766 628  1 1 0 0 0 0 0 0 0 100 480 
3.064 2 1 1 0 0.274658 -2.655029 1.922607 0.1651 0.1663 0.0727 -0.0004 0.005182 0.006761 -4.1800 0 -0.8126 0  544 773 856 858 840 777 764 621  1 1 0 0 0 0 0 0 0 100 470 
3.071 2 1 1 0 0.000000 2.624512 1.281738 0.1518 0.1578 0.0739 -0.0004 0.005182 0.006526 -4.1800 0 -0.8126 0  543 772 865 862 837 794 769 645  1 1 0 0 0 0 0 0 0 100 480 
3.078 2 1 1 0 -0.549316 2.380371 3.601074 0.1542 0.1482 0.0749 -0.0004 0.007773 0.005913 -4.1800 0 -0.8126 0  550 777 865 862 842 778 769 627  1 1 0 0 0 0 0 0 0 100 480 
3.085 2 1 1 0 -0.427246 0.854492 -4.730225 0.1948 0.1345 0.0759 -0.0004 0.005182 0.006263 -4.1800 0 -0.8126 0  550 778 856 862 846 765 770 633  1 1 0 0 0 0 0 0 0 100 480 
3.092 2 1 1 0 0.274658 5.279541 0.152588 0.1458 0.1679 0.0771 -0.0003 0.005182 0.005551 -4.1800 0 -0.8126 0  552 777 854 862 846 796 773 643  1 1 0 0 0 0 0 0 0 100 480 
3.099 2 1 1 0 -0.396729 3.936768 1.586914 0.1345 0.1663 0.0781 -0.0003 0.007773 0.004897 -4.1800 0 -0.8126 0  551 778 883 864 845 728 771 633  1 1 0 0 0 0 0 0 0 100 480 
3.106 2 1 1 0 0.427246 3.509521 -7.568359 0.1723 0.1374 0.0791 -0.0003 0.005182 0.004982 -4.1800 0 -0.8126 0  532 776 854 873 844 790 773 631  1 1 0 0 0 0 0 0 0 100 480 
3.113 2 1 1 0 0.579834 6.805420 -1.190186 0.1566 0.1554 0.0803 -0.0003 0.005182 0.004146 -4.1800 0 -0.8126 0  557 784 867 870 850 773 781 639  1 1 0 0 0 0 0 0 0 100 490 
3.120 2 1 1 0 -0.335693 1.525879 -2.380371 0.1289 0.1856 0.0813 -0.0003 0.007773 0.003497 -4.1800 0 -0.8126 0  563 786 868 869 852 817 784 637  1 1 0 0 0 0 0 0 0 100 490 
3.127 2 1 1 0 1.281738 -1.098633 -5.645752 0.1876 0.1458 0.0825 -0.0003 0.007773 0.003914 -4.1800 0 -0.8126 0  534 783 869 877 858 786 787 641  1 1 0 0 0 0 0 0 0 100 480 
3.134 2 1 1 0 -0.366211 1.953125 -9.765625 0.2253 0.1382 0.0837 -0.0003 0.002591 0.004199 -4.1800 0 -0.8126 0  554 782 872 884 862 794 797 646  1 1 0 0 0 0 0 0 0 100 490 
3.141 2 1 1 0 -0.488281 5.859375 4.730225 0.0948 0.2028 0.0847 -0.0003 0.005182 0.002711 -4.1800 0 -0.8126 0  543 785 875 878 872 831 798 649  1 1 0 0 0 0 0 0 0 100 480 
3.148 2 1 1 0 -0.732422 4.669189 -8.972168 0.1968 0.1490 0.0859 -0.0003 0.005182 0.003043 -4.1800 0 -0.8126 0  552 786 876 883 869 812 787 647  1 1 0 0 0 0 0 0 0 100 480 
3.155 2 1 1 0 0.823975 7.659912 -0.701904 0.1530 0.1317 0.0867 -0.0003 0.005182 0.002224 -4.1800 0 -0.8126 0  508 783 870 857 881 809 812 645  1 1 0 0 0 0 0 0 0 100 480 
3.162 2 1 1 0 -2.441406 5.950928 2.227783 0.1317 0.1715 0.0880 -0.0003 0.005182 0.000858 -4.1800 0 -0.8126 0  560 784 874 893 881 817 804 648  1 1 0 0 0 0 0 0 0 100 490 
3.169 2 1 1 0 0.732422 -2.227783 -0.671387 0.1884 0.1731 0.0892 -0.0003 0.005182 0.001185 -4.1800 0 -0.8126 0  562 783 879 890 883 824 813 646  1 1 0 0 0 0 0 0 0 100 490 
3.176 2 1 1 0 0.579834 -1.892090 -1.068115 0.1643 0.1426 0.0904 -0.0003 0.005182 0.001868 -4.1800 0 -0.8126 0  596 783 881 857 889 813 776 650  1 1 0 0 0 0 0 0 0 100 480 
3.183 2 1 1 0 -1.556396 3.814697 6.805420 0.1353 0.1775 0.0914 -0.0003 0.007773 0.000898 -4.1800 0 -0.8126 0  533 788 881 906 891 833 825 643  1 1 0 0 0 0 0 0 0 100 480 
3.190 2 1 1 0 1.190186 2.441406 0.762939 0.1767 0.1305 0.0924 -0.0003 0.005182 0.000878 -4.1800 0 -0.8126 0  575 792 885 922 891 835 823 642  1 1 0 0 0 0 0 0 0 100 480 
3.197 2 1 1 0 0.823975 1.739502 2.441406 0.1691 0.1518 0.0936 -0.0003 0.005182 0.000822 -4.1800 0 -0.8126 0  551 786 883 907 896 829 808 645  1 1 0 0 0 0 0 0 0 100 480 
3.204 2 1 1 0 -0.488281 3.082275 6.225586 0.1044 0.1699 0.0946 -0.0002 0.007773 -0.000014 -4.1800 0 -0.8126 0  557 791 886 901 907 820 802 637  1 1 0 0 0 0 0 0 0 100 490 
3.211 2 1 1 0 2.166748 -1.678467 -0.732422 0.1876 0.1406 0.0956 -0.0002 0.005182 0.000632 -4.1800 0 -0.8126 0  543 795 885 903 906 841 829 637  1 1 0 0 0 0 0 0 0 100 480 
3.218 2 1 1 0 1.525879 -1.434326 5.828857 0.2036 0.1458 0.0968 -0.0002 0.005182 0.000771 -4.1800 0 -0.8126 0  545 773 895 906 911 836 807 639  1 1 0 0 0 0 0 0 0 100 490 
3.225 2 1 1 0 -1.129150 1.708984 5.889893 0.1502 0.1578 0.0980 -0.0002 0.005182 0.000661 -4.1800 0 -0.8126 0  538 812 899 951 913 833 806 634  1 1 0 0 0 0 0 0 0 100 490 
3.232 2 1 1 0 1.190186 -1.495361 0.244141 0.2008 0.1450 0.0990 -0.0002 0.002591 0.001217 -4.1800 0 -0.8126 0  555 804 900 921 910 833 798 626  1 1 0 0 0 0 0 0 0 100 490 
3.239 2 1 1 0 0.091553 1.068115 6.896973 0.1454 0.1514 0.1000 -0.0002 0.005182 0.000968 -4.1800 0 -0.8126 0  553 813 900 932 920 827 781 628  1 1 0 0 0 0 0 0 0 100 490 
3.246 2 1 1 0 -1.251221 2.197266 1.495361 0.1454 0.1470 0.1010 -0.0002 0.002591 0.000948 -4.1800 0 -0.8126 0  552 802 902 935 913 824 803 626  1 1 0 0 0 0 0 0 0 100 490 
3.253 2 1 1 0 2.136230 -0.457764 0.488281 0.1370 0.1498 0.1020 -0.0002 0.005182 0.001131 -4.1800 0 -0.8126 0  556 824 915 935 916 821 781 613  1 1 0 0 0 0 0 0 0 100 480 
3.260 2 1 1 0 -1.434326 -3.265381 8.117676 0.1920 0.1659 0.1030 -0.0002 0.002591 0.000950 -4.1800 0 -0.8126 0  520 763 901 940 912 829 817 630  1 1 0 0 0 0 0 0 0 100 480 
3.267 2 1 1 0 -0.549316 -3.295898 2.105713 0.1663 0.1434 0.1042 -0.0002 0.002591 0.001681 -4.1800 0 -0.8126 0  560 804 916 929 910 819 785 618  1 1 0 0 0 0 0 0 0 100 480 
3.274 2 1 1 0 1.770020 1.647949 -0.152588 0.1281 0.1217 0.1052 -0.0002 -0.000000 0.001741 -4.1800 0 -0.8126 0  556 853 917 924 881 814 776 594  1 1 0 0 0 0 0 0 0 100 470 
3.281 2 1 1 0 -1.129150 -0.701904 11.077881 0.1438 0.1731 0.1062 -0.0002 0.002591 0.001097 -4.1800 0 -0.8126 0  564 802 918 945 913 815 750 624  1 1 0 0 0 0 0 0 0 100 470 
3.288 2 1 1 0 0.823975 -2.410889 -0.244141 0.1783 0.1370 0.1074 -0.0002 0.002591 0.002002 -4.1800 0 -0.8126 0  565 800 922 933 917 819 781 602  1 1 0 0 0 0 0 0 0 100 480 
3.295 2 1 1 0 0.854492 3.814697 5.218506 0.1297 0.1414 0.1084 -0.0002 -0.000000 0.001808 -4.1800 0 -0.8126 0  561 842 922 933 905 817 795 641  1 1 0 0 0 0 0 0 0 100 480 
3.302 2 1 1 0 -0.579834 -0.061035 6.896973 0.1257 0.1506 0.1094 -0.0002 0.002591 0.001333 -4.1800 0 -0.8126 0  565 821 921 930 887 817 783 575  1 1 0 0 0 0 0 0 0 100 480 
3.309 2 1 1 0 1.464844 -6.652832 6.317139 0.1691 0.1526 0.1104 -0.0002 -0.000000 0.001956 -4.1800 0 -0.8126 0  569 851 925 934 946 858 808 641  1 1 0 0 0 0 0 0 0 100 480 
3.316 2 1 1 0 -0.274658 -4.455566 -0.518799 0.1554 0.1394 0.1116 -0.0002 -0.000000 0.003022 -4.1800 0 -0.8126 0  564 816 921 927 907 822 784 635  1 1 0 0 0 0 0 0 0 100 480 
3.323 2 1 1 0 0.946045 2.899170 5.096436 0.1434 0.1189 0.1127 -0.0002 -0.002591 0.002488 -4.1800 0 -0.8126 0  565 836 921 925 921 821 784 585  1 1 0 0 0 0 0 0 0 100 480 
3.330 2 1 1 0 1.068115 -5.462646 6.500244 0.1374 0.1783 0.1137 -0.0002 -0.000000 0.002916 -4.1800 0 -0.8126 0  572 794 922 931 882 819 783 614  1 1 0 0 0 0 0 0 0 100 480 
3.337 2 1 1 0 -0.366211 -4.119873 2.655029 0.1639 0.1305 0.1149 -0.0002 -0.000000 0.003763 -4.1800 0 -0.8126 0  571 823 924 934 898 819 790 615  1 1 0 0 0 0 0 0 0 100 450 
3.344 2 1 1 0 1.770020 2.227783 -0.762939 0.1807 0.1273 0.1159 -0.0002 -0.002591 0.004283 -4.1800 0 -0.8126 0  572 833 923 924 900 820 789 607  1 1 0 0 0 0 0 0 0 100 470 
3.351 2 1 1 0 -0.305176 0.671387 13.183594 0.1181 0.1868 0.1169 -0.0002 -0.000000 0.002985 -4.1800 0 -0.8126 0  573 828 927 929 931 825 790 604  1 1 0 0 0 0 0 0 0 100 480 
3.358 2 1 1 0 0.183105 2.899170 -0.061035 0.2008 0.1422 0.1179 -0.0002 -0.002591 0.003651 -4.1800 0 -0.8126 0  572 828 929 924 911 830 790 625  1 1 0 0 0 0 0 0 0 100 480 
3.365 2 1 1 0 2.441406 0.915527 -0.152588 0.1562 0.1341 0.1191 -0.0002 -0.002591 0.003557 -4.1800 0 -0.8126 0  574 830 924 920 904 843 793 621  1 1 0 0 0 0 0 0 0 100 480 
3.372 2 1 1 0 -1.464844 -4.394531 2.929688 0.1550 0.1884 0.1203 -0.0002 -0.002591 0.003655 -4.1800 0 -0.8126 0  573 820 900 926 901 813 799 649  1 1 0 0 0 0 0 0 0 100 490 
3.379 2 1 1 0 1.861572 -2.716064 -2.685547 0.1920 0.1506 0.1215 -0.0002 -0.002591 0.004552 -4.1800 0 -0.8126 0  578 824 916 923 902 834 797 607  1 1 0 0 0 0 0 0 0 100 480 
3.386 2 1 1 0 0.762939 7.476807 -1.251221 0.1221 0.1345 0.1225 -0.0002 -0.005182 0.004154 -4.1800 0 -0.8126 0  574 821 900 919 905 836 796 650  1 1 0 0 0 0 0 0 0 100 470 
3.393 2 1 1 0 -0.823975 3.112793 4.455566 0.1518 0.1751 0.1235 -0.0002 -0.002591 0.002868 -4.1800 0 -0.8126 0  573 818 918 921 903 841 797 634  1 1 0 0 0 0 0 0 0 100 480 
3.400 2 1 1 0 0.823975 -2.502441 5.340576 0.1715 0.1723 0.1247 -0.0002 -0.002591 0.003154 -4.1800 0 -0.8126 0  582 846 945 922 906 838 804 629  1 1 0 0 0 0 0 0 0 100 480 
3.407 2 1 1 0 -0.335693 3.051758 -5.828857 0.1900 0.1394 0.1257 -0.0002 -0.005182 0.003589 -4.1800 0 -0.8126 0  572 821 908 920 899 831 800 637  1 1 0 0 0 0 0 0 0 100 470 
3.414 2 1 1 0 -0.579834 4.425049 7.781982 0.1357 0.1663 0.1269 -0.0002 -0.005182 0.002337 -4.1800 0 -0.8126 0  574 821 914 915 906 834 806 633  1 1 0 0 0 0 0 0 0 100 470 
3.421 2 1 1 0 -2.502441 -0.213623 3.356934 0.1590 0.1831 0.1279 -0.0002 -0.002591 0.002645 -4.1800 0 -0.8126 0  568 814 911 919 903 854 805 632  1 1 0 0 0 0 0 0 0 100 480 
3.428 2 1 1 0 -1.831055 1.312256 -1.373291 0.1743 0.1277 0.1291 -0.0002 -0.002591 0.002695 -4.1800 0 -0.8126 0  572 809 930 921 905 847 805 642  1 1 0 0 0 0 0 0 0 100 490 
3.435 2 1 1 0 -1.129150 0.549316 8.544922 0.1707 0.1651 0.1301 -0.0002 -0.005182 0.002456 -4.1800 0 -0.8126 0  570 817 901 918 904 826 807 640  1 1 0 0 0 0 0 0 0 100 480 
3.442 2 1 1 0 -3.295898 0.915527 6.866455 0.1659 0.1767 0.1313 -0.0003 -0.005182 0.002167 -4.1800 0 -0.8126 0  582 813 910 917 906 816 807 641  1 1 0 0 0 0 0 0 0 100 480 
3.449 2 1 1 0 -1.647949 1.586914 5.401611 0.1305 0.1285 0.1325 -0.0003 -0.005182 0.002026 -4.1800 0 -0.8126 0  576 813 899 919 909 880 803 635  1 1 0 0 0 0 0 0 0 100 480 
3.456 2 1 1 0 -1.800537 -0.915527 9.552002 0.1606 0.1470 0.1333 -0.0003 -0.005182 0.001899 -4.1800 0 -0.8126 0  567 810 895 915 904 837 802 643  1 1 0 0 0 0 0 0 0 100 480 
3.463 2 1 1 0 -2.349854 -2.349854 7.141113 0.2008 0.1498 0.1345 -0.0003 -0.005182 0.002221 -4.1800 0 -0.8126 0  550 807 910 905 898 829 806 642  1 1 0 0 0 0 0 0 0 100 490 
3.470 2 1 1 0 -0.549316 -2.136230 7.934570 0.1498 0.1462 0.1355 -0.0003 -0.007773 0.002629 -4.1800 0 -0.8126 0  560 812 910 921 902 853 805 638  1 1 0 0 0 0 0 0 0 100 490 
3.477 2 1 1 0 -1.983643 -3.448486 4.425049 0.1631 0.1253 0.1368 -0.0003 -0.007773 0.003186 -4.1800 0 -0.8126 0  595 813 900 905 905 832 806 643  1 1 0 0 0 0 0 0 0 100 480 
3.484 2 1 1 0 -1.708984 -3.448486 2.960205 0.1454 0.1498 0.1376 -0.0003 -0.007773 0.003788 -4.1800 0 -0.8126 0  544 817 906 925 908 841 809 644  1 1 0 0 0 0 0 0 0 100 470 
3.491 2 1 1 0 -0.457764 -6.958008 1.068115 0.1205 0.1482 0.1386 -0.0003 -0.005182 0.004660 -4.1800 0 -0.8126 0  573 818 903 927 907 839 809 644  1 1 0 0 0 0 0 0 0 100 490 
3.498 2 1 1 0 -0.946045 -6.011963 -3.143311 0.1743 0.1398 0.1396 -0.0003 -0.007773 0.005696 -4.1800 0 -0.8126 0  555 819 903 937 906 820 812 643  1 1 0 0 0 0 0 0 0 100 480 
3.505 2 1 1 0 0.122070 3.784180 2.777100 0.1775 0.1458 0.1408 -0.0003 -0.007773 0.005307 -4.1800 0 -0.8126 0  558 818 894 926 912 867 819 651  1 1 0 0 0 0 0 0 0 100 480 
3.512 2 1 1 0 -0.213623 -0.335693 -3.967285 0.1040 0.1422 0.1416 -0.0003 -0.007773 0.005509 -4.1800 0 -0.8126 0  583 813 912 925 915 849 823 645  1 1 0 0 0 0 0 0 0 100 480 
3.519 2 1 1 0 -1.159668 -7.141113 2.441406 0.1715 0.1643 0.1428 -0.0003 -0.007773 0.005715 -4.1800 0 -0.8126 0  541 816 906 901 919 854 808 645  1 1 0 0 0 0 0 0 0 100 490 
3.526 2 1 1 0 -0.915527 -5.950928 -4.882812 0.1912 0.1566 0.1440 -0.0003 -0.007773 0.006964 -4.1800 0 -0.8126 0  579 817 910 962 922 842 817 652  1 1 0 0 0 0 0 0 0 100 490 
3.533 2 1 1 0 -1.434326 1.342773 -4.882812 0.1426 0.1357 0.1450 -0.0003 -0.010364 0.006999 -4.1800 0 -0.8126 0  561 813 913 927 920 847 822 649  1 1 0 0 0 0 0 0 0 100 480 
3.540 2 1 1 0 -1.159668 -5.249023 0.396729 0.1353 0.1791 0.1462 -0.0004 -0.005182 0.007069 -4.1800 0 -0.8126 0  564 822 917 934 924 846 807 661  1 1 0 0 0 0 0 0 0 100 480 
3.547 2 1 1 0 -0.030518 -1.647949 -8.178711 0.1631 0.1623 0.1472 -0.0004 -0.007773 0.007932 -4.1800 0 -0.8126 0  561 818 918 956 923 847 827 653  1 1 0 0 0 0 0 0 0 100 490 
3.554 2 1 1 0 0.732422 7.720947 -0.335693 0.1257 0.1442 0.1482 -0.0004 -0.005182 0.006893 -4.1800 0 -0.8126 0  598 795 921 939 925 846 815 663  1 1 0 0 0 0 0 0 0 100 480 
3.561 2 1 1 0 -0.152588 -1.068115 -1.342773 0.1562 0.1671 0.1494 -0.0004 -0.005182 0.006891 -4.1800 0 -0.8126 0  560 821 917 946 928 850 814 657  1 1 0 0 0 0 0 0 0 100 480 
3.568 2 1 1 0 -0.183105 -6.652832 1.312256 0.1968 0.1807 0.1506 -0.0004 -0.005182 0.007525 -4.1800 0 -0.8126 0  571 829 924 950 925 847 829 664  1 1 0 0 0 0 0 0 0 100 480 
3.575 2 1 1 0 -0.946045 1.525879 -5.615234 0.1374 0.1173 0.1514 -0.0004 -0.005182 0.008185 -4.1800 0 -0.8126 0  593 801 922 935 913 843 824 664  1 1 0 0 0 0 0 0 0 100 480 
3.582 2 1 1 0 -0.488281 -2.349854 2.777100 0.1586 0.1699 0.1526 -0.0004 -0.005182 0.007787 -4.1800 0 -0.8126 0  577 824 927 930 917 839 815 668  1 1 0 0 0 0 0 0 0 100 490 
3.589 2 1 1 0 -1.464844 -6.774902 0.213623 0.2016 0.1691 0.1538 -0.0004 -0.005182 0.008690 -4.1800 0 -0.8126 0  572 835 927 939 922 844 804 666  1 1 0 0 0 0 0 0 0 100 480 
3.596 2 1 1 0 -0.274658 3.295898 -4.699707 0.1241 0.1357 0.1546 -0.0004 -0.005182 0.008926 -4.1800 0 -0.8126 0  578 836 927 937 923 840 836 672  1 1 0 0 0 0 0 0 0 100 470 
3.603 2 1 1 0 0.701904 -0.671387 -0.396729 0.1498 0.1606 0.1558 -0.0004 -0.005182 0.008366 -4.1800 0 -0.8126 0  580 835 928 933 901 837 806 671  1 1 0 0 0 0 0 0 0 100 480 
3.610 2 1 1 0 -1.342773 -7.873535 0.366211 0.1623 0.1839 0.1570 -0.0004 -0.005182 0.009099 -4.1800 0 -0.8126 0  593 838 929 923 909 841 824 681  1 1 0 0 0 0 0 0 0 100 480 
3.617 2 1 1 0 -0.671387 -1.098633 -7.781982 0.1390 0.1414 0.1578 -0.0004 -0.005182 0.009783 -4.1800 0 -0.8126 0  596 870 931 928 920 843 839 697  1 1 0 0 0 0 0 0 0 100 470 
3.624 2 1 1 0 -0.640869 -2.624512 -2.410889 0.1611 0.1639 0.1590 -0.0004 -0.005182 0.009644 -4.1800 0 -0.8126 0  591 824 932 930 931 836 829 702  1 1 0 0 0 0 0 0 0 100 480 
3.631 2 1 1 0 -1.495361 -9.460449 -0.305176 0.2181 0.1956 0.1602 -0.0004 -0.005182 0.010309 -4.1800 0 -0.8126 0  594 832 935 925 890 832 838 698  1 1 0 0 0 0 0 0 0 100 480 
3.638 2 1 1 0 -1.251221 1.007080 -7.019043 0.1631 0.1273 0.1615 -0.0004 -0.005182 0.010941 -4.1800 0 -0.8126 0  593 813 941 929 899 829 838 729  1 1 0 0 0 0 0 0 0 100 480 
3.645 2 1 1 0 -0.213623 2.929688 -0.030518 0.1502 0.1562 0.1623 -0.0004 -0.005182 0.010083 -4.1800 0 -0.8126 0  604 845 941 931 899 822 850 750  1 1 0 0 0 0 0 0 0 100 470 
3.652 2 1 1 0 -0.823975 -4.974365 1.403809 0.1631 0.1892 0.1637 -0.0004 -0.002591 0.010314 -4.1800 0 -0.8126 0  598 872 942 926 908 820 855 768  1 1 0 0 0 0 0 0 0 100 490 
3.659 2 1 1 0 0.213623 1.464844 -5.706787 0.1731 0.1498 0.1647 -0.0004 -0.005182 0.010796 -4.1800 0 -0.8126 0  597 852 943 941 858 816 868 775  1 1 0 0 0 0 0 0 0 100 490 
3.666 2 1 1 0 0.152588 4.974365 0.000000 0.1643 0.1598 0.1657 -0.0005 -0.002591 0.009806 -4.1800 0 -0.8126 0  599 861 938 917 877 815 886 789  1 1 0 0 0 0 0 0 0 100 480 
3.673 2 1 1 0 -0.579834 -1.617432 2.105713 0.1518 0.1920 0.1669 -0.0005 -0.002591 0.009895 1.8984 0 4.1800 0  601 851 942 915 880 826 898 820  1 1 0 0 0 0 0 0 0 100 480 
3.680 2 1 1 0 -0.061035 -0.854492 -5.615234 0.1900 0.1514 0.1681 -0.0005 -0.002591 0.010411 1.8798 0 4.1800 0  610 880 940 923 866 831 920 815  1 1 0 0 0 0 0 0 0 100 480 
3.687 2 1 1 0 0.122070 5.279541 -0.213623 0.1378 0.1715 0.1693 -0.0005 -0.002591 0.009653 1.6885 1 4.1800 0  609 845 923 912 871 843 939 847  1 1 0 0 0 0 0 6 0 100 510 
3.694 2 1 1 0 -0.030518 1.220703 4.180908 0.1606 0.1715 0.1705 -0.0005 -0.002591 0.009160 1.5882 1 4.1800 0  599 861 920 918 877 852 966 847  1 1 0 0 0 0 0 10 0 100 510 
3.701 2 1 2 0 0.030518 2.044678 -1.281738 0.2016 0.0695 0.1713 -0.0005 -0.007773 0.009318 1.5209 1 4.1800 0  615 885 944 930 891 880 999 865  1 1 0 0 0 0 0 17 0 100 510 
3.708 2 1 2 0 -8.300781 -9.857178 7.568359 0.1357 -0.3615 0.1705 -0.0005 -0.028502 0.009341 1.6384 1 4.1800 0  606 862 945 927 898 883 1021 923  1 1 0 0 0 0 0 20 0 100 510 
3.715 2 1 2 0 3.143311 -35.400391 45.989990 0.1506 -0.5575 0.1693 -0.0004 -0.059596 0.009885 1.5773 1 4.1800 0  593 854 940 905 887 903 1014 918  1 1 0 0 0 0 0 20 0 100 510 
3.722 2 1 2 0 11.596680 -54.046631 69.763184 0.2446 -0.5735 0.1681 -0.0003 -0.095872 0.015067 1.6067 1 4.1800 0  622 884 956 938 923 923 1053 955  1 1 0 0 0 0 0 20 0 100 520 
3.729 2 1 2 0 12.054443 -67.504883 107.391357 0.2205 -0.3896 0.1675 -0.0002 -0.129556 0.020197 1.6006 1 4.1800 0  638 872 982 955 940 951 1084 989  1 1 0 0 0 0 0 20 0 100 510 
3.736 2 1 2 0 17.211914 -73.242188 149.414062 0.2952 -0.2068 0.1675 -0.0002 -0.155467 0.026732 1.5923 1 4.1800 0  653 914 1006 990 965 979 1103 1000  1 1 0 0 0 0 0 20 0 100 510 
3.743 2 1 2 0 24.963379 -67.962646 190.307617 0.3896 -0.0863 0.1685 -0.0004 -0.173605 0.033320 1.3823 1 4.1800 0  662 924 1020 998 990 1011 1186 1037  1 1 0 0 0 0 0 20 0 100 510 
3.750 2 1 2 0 30.731201 -50.018311 198.944092 0.4723 0.0378 0.1701 -0.0007 -0.189152 0.039700 1.2496 1 4.1800 0  673 948 1041 1011 1021 1060 1193 1074  1 1 0 0 0 0 0 20 0 100 510 
3.757 2 1 2 0 27.832031 -3.570557 208.862305 0.5426 0.1498 0.1722 -0.0011 -0.207290 0.041847 1.2184 1 4.1800 0  666 949 1022 1024 1052 1074 1195 1084  1 1 0 0 0 0 0 20 0 100 510 
3.764 2 1 2 0 28.900146 46.356201 203.674316 0.5020 0.1096 0.1744 -0.0016 -0.225428 0.038523 0.8740 1 4.1800 0  661 911 1020 1035 1097 1133 1286 1109  1 1 0 0 0 0 0 20 0 100 500 
3.771 2 1 2 0 25.482178 80.078125 186.950684 0.5575 0.2056 0.1769 -0.0022 -0.243566 0.030604 0.6391 1 4.1800 0  649 927 1022 1063 1138 1204 1325 1094  1 1 0 0 0 0 0 20 0 100 510 
3.778 2 1 2 0 19.561768 111.022949 172.729492 0.4615 0.3346 0.1796 -0.0029 -0.248748 0.018810 0.3901 1 4.1800 0  616 893 1022 1056 1178 1190 1339 1088  1 1 0 0 0 0 0 20 0 100 500 
3.785 2 1 2 0 16.815186 126.312256 151.580811 0.2607 0.2590 0.1816 -0.0034 -0.248748 0.005250 0.0764 1 4.1800 0  628 882 982 1108 1239 1260 1343 1083  1 1 0 0 0 0 0 20 0 100 510 
3.792 2 1 2 0 18.676758 92.864990 92.773438 0.0739 0.1707 0.1824 -0.0036 -0.243566 -0.005649 -0.0328 1 4.1800 0  624 876 1038 1130 1256 1320 1342 1057  1 1 0 0 0 0 0 20 0 100 510 
3.799 2 1 2 0 5.462646 67.199707 66.619873 0.0321 0.2478 0.1831 -0.0038 -0.233201 -0.012127 -0.1415 1 4.1800 0  638 856 1010 1139 1272 1332 1303 1040  1 1 0 0 0 0 0 20 0 100 510 
3.806 2 1 2 0 1.434326 38.909912 29.968262 0.0205 0.2972 0.1841 -0.0040 -0.220246 -0.013456 -0.1555 1 4.1800 0  607 856 1055 1136 1289 1229 1282 1030  1 1 0 0 0 0 0 20 0 100 510 
3.813 2 1 2 0 0.762939 21.545410 -16.662598 0.0153 0.3265 0.1853 -0.0043 -0.209881 -0.013407 -0.2239 1 4.1800 0  597 861 1012 1157 1302 1278 1301 1022  1 1 0 0 0 0 0 20 0 100 510 
3.820 2 1 2 0 -3.753662 11.199951 -62.622070 0.1759 0.3213 0.1869 -0.0046 -0.199516 -0.011839 -0.2270 1 4.1800 0  612 874 1030 1167 1302 1295 1288 1016  1 1 0 0 0 0 0 20 0 100 500 
3.827 2 1 2 0 -7.568359 16.967773 -92.132568 0.1623 0.3715 0.1887 -0.0049 -0.191743 -0.011431 -0.2011 1 4.1800 0  621 849 1030 1141 1303 1323 1280 1011  1 1 0 0 0 0 0 20 0 100 510 
3.834 2 1 2 0 -7.415771 40.435791 -106.750488 0.1876 0.4317 0.1908 -0.0053 -0.178787 -0.014778 -0.3457 1 4.1800 0  575 851 1012 1168 1303 1268 1267 1002  1 1 0 0 0 0 0 20 0 100 510 
3.841 2 1 2 0 -4.211426 57.434082 -122.497559 0.2253 0.4615 0.1930 -0.0057 -0.171014 -0.020102 -0.2526 1 4.1800 0  588 845 1027 1155 1299 1274 1241 979  1 1 0 0 0 0 0 20 0 100 520 
3.848 2 1 2 0 -5.798340 73.638916 -128.448486 0.1663 0.4779 0.1954 -0.0061 -0.155467 -0.027496 -0.3257 1 4.1800 0  566 831 1001 1154 1281 1219 1224 958  1 1 0 0 0 0 0 20 0 100 510 
3.855 2 1 2 0 -3.509521 89.813232 -118.499756 0.1390 0.5020 0.1976 -0.0065 -0.142512 -0.038173 -0.2621 1 4.1800 0  565 815 992 1120 1259 1231 1176 934  1 1 0 0 0 0 0 20 0 100 520 
3.862 2 1 2 0 1.861572 89.141846 -126.464844 0.2100 0.5081 0.1999 -0.0068 -0.126965 -0.048887 -0.4302 1 4.1800 0  541 800 970 1120 1252 1203 1160 903  1 1 0 0 0 0 0 20 0 100 510 
3.869 2 1 2 0 13.427734 90.637207 -124.664307 0.1406 0.5020 0.2021 -0.0070 -0.108827 -0.059836 -0.4671 1 4.1800 0  538 785 959 1105 1221 1170 1130 880  1 1 0 0 0 0 0 20 0 100 510 
3.876 2 1 2 0 5.249023 92.620850 -127.197266 0.1233 0.5020 0.2043 -0.0073 -0.095871 -0.070480 -0.4875 1 4.0958 1  529 772 944 1100 1203 1155 1128 861  1 1 0 0 0 0 0 20 1 100 510 
3.883 2 1 2 0 -1.403809 94.940186 -125.213623 0.0735 0.4779 0.2063 -0.0074 -0.075142 -0.081691 -0.4670 1 4.1800 0  543 761 924 1081 1182 1139 1080 837  1 1 0 0 0 0 0 20 0 100 510 
3.890 2 1 2 0 8.392334 89.294434 -129.486084 0.1217 0.4510 0.2083 -0.0076 -0.059596 -0.092303 -0.5891 1 3.8581 1  498 745 913 1060 1159 1110 1062 806  1 1 0 0 0 0 0 20 4 100 510 
3.897 2 1 2 0 5.767822 78.491211 -139.770508 0.1574 0.3976 0.2101 -0.0077 -0.046640 -0.100530 -0.5113 1 3.7278 1  487 736 891 1027 1143 1095 1054 793  1 1 0 0 0 0 0 20 8 100 520 
3.904 2 1 2 0 5.920410 76.965332 -140.533447 0.1285 0.4225 0.2124 -0.0077 -0.033684 -0.108845 -0.5396 1 3.8232 1  485 714 872 1020 1126 1073 1029 780  1 1 0 0 0 0 0 20 15 100 510 
3.911 2 1 2 0 10.894775 76.324463 -136.291504 0.0884 0.4317 0.2140 -0.0078 -0.018138 -0.117856 -0.5090 1 3.5934 1  480 709 853 1004 1108 1059 1025 772  1 1 0 0 0 0 0 20 16 100 490 
3.918 2 1 2 0 5.889893 66.802979 -123.046875 0.1173 0.4137 0.2160 -0.0078 -0.002591 -0.126359 -0.4723 0 4.0703 0  479 686 836 975 1092 1044 963 758  1 1 0 0 0 0 0 12 8 100 450 
3.925 2 1 2 0 14.160156 63.018799 -118.530273 0.1462 0.3751 0.2180 -0.0078 0.007774 -0.134195 -0.4723 0 4.0703 0  455 674 816 951 1069 1029 971 745  1 1 0 0 0 0 0 0 0 100 460 
3.932 2 1 2 0 10.559082 60.058594 -111.907959 0.1462 0.3715 0.2196 -0.0078 0.018138 -0.141380 -0.4723 0 4.0703 0  444 657 811 940 1050 1012 966 738  1 1 0 0 0 0 0 0 0 100 450 
3.939 2 1 2 0 4.333496 51.849365 -97.717285 0.0916 0.3550 0.2212 -0.0077 0.028502 -0.148081 -0.4723 0 4.0703 0  441 653 794 923 1025 995 950 730  1 1 0 0 0 0 0 0 0 100 450 
3.946 2 1 2 0 15.075684 50.048828 -92.407227 0.0811 0.2908 0.2226 -0.0077 0.041458 -0.153987 -0.4723 0 4.0703 0  423 628 774 906 1014 984 945 725  1 1 0 0 0 0 0 0 0 100 440 
3.953 2 1 2 0 7.141113 48.919678 -84.960938 0.0410 0.2972 0.2236 -0.0076 0.054414 -0.159691 -0.4723 0 4.0703 0  420 638 764 882 979 966 936 712  1 1 0 0 0 0 0 0 0 100 450 
3.960 2 1 2 0 3.387451 39.184570 -76.843262 0.0237 0.2321 0.2246 -0.0076 0.067369 -0.164926 -0.4723 0 4.0703 0  417 571 753 878 961 965 927 690  1 1 0 0 0 0 0 0 0 100 450 
3.967 2 1 2 0 10.620117 11.077881 -82.824707 0.0221 0.2145 0.2256 -0.0075 0.075143 -0.166295 -0.4723 0 4.0703 0  411 621 743 871 959 949 910 708  1 1 0 0 0 0 0 0 0 100 460 
3.974 2 1 2 0 13.977051 0.396729 -81.024170 0.0221 0.2181 0.2262 -0.0075 0.082916 -0.165768 -0.4723 0 4.0703 0  411 576 732 854 945 946 911 694  1 1 0 0 0 0 0 0 0 100 450 
3.981 2 1 2 0 4.882812 8.728027 -76.354980 0.0201 0.1831 0.2270 -0.0074 0.093281 -0.166153 -0.4723 0 4.0703 0  402 606 731 848 916 939 907 681  1 1 0 0 0 0 0 0 0 100 450 
3.988 2 1 2 0 10.375977 8.605957 -75.469971 0.0149 0.1382 0.2274 -0.0074 0.098463 -0.167093 -0.4723 0 4.0703 0  409 579 714 835 921 937 891 680  1 1 0 0 0 0 0 0 0 100 450 
3.995 2 1 2 0 5.645752 -12.207031 -74.310303 -0.0149 0.1125 0.2276 -0.0073 0.106236 -0.165764 -0.4723 0 4.0703 0  405 622 712 836 953 940 907 717  1 1 0 0 0 0 0 0 0 100 450 
4.002 2 1 2 0 3.479004 -29.632568 -61.950684 -0.0430 0.1076 0.2278 -0.0073 0.114009 -0.162410 -0.4723 0 4.0703 0  408 576 710 837 958 933 897 716  1 1 0 0 0 0 0 0 0 100 450 
4.009 2 1 2 0 10.742188 -36.773682 -52.673340 -0.0896 0.1056 0.2278 -0.0073 0.124374 -0.158143 -0.4723 0 4.0703 0  414 591 709 838 933 937 921 714  1 1 0 0 0 0 0 0 0 100 440 
4.016 2 1 2 0 3.997803 -36.407471 -48.248291 -0.1173 0.0811 0.2276 -0.0073 0.132147 -0.153231 -0.4723 0 4.0703 0  415 606 716 838 939 949 930 703  1 1 0 0 0 0 0 0 0 100 450 
4.023 2 1 2 0 1.068115 -36.315918 -53.039551 -0.1084 0.0386 0.2272 -0.0074 0.137330 -0.148086 -0.4723 0 4.0703 0  423 598 717 842 949 947 936 739  1 1 0 0 0 0 0 0 0 100 450 
4.030 2 1 2 0 4.577637 -45.745850 -40.771484 -0.1398 0.0229 0.2268 -0.0075 0.142512 -0.142808 -0.4723 0 4.0703 0  417 598 719 839 960 964 947 733  1 1 0 0 0 0 0 0 0 100 450 
4.037 2 1 2 0 -0.579834 -59.112549 -41.687012 -0.1450 0.0165 0.2264 -0.0075 0.147694 -0.135672 -0.4723 0 4.0703 0  428 568 727 848 921 965 962 742  1 1 0 0 0 0 0 0 0 100 450 
4.044 2 1 2 0 3.814697 -60.852051 -46.875000 -0.1374 0.0125 0.2260 -0.0076 0.152876 -0.127105 -0.4723 0 4.0703 0  429 615 733 852 988 975 975 755  1 1 0 0 0 0 0 0 0 100 440 
4.051 2 1 2 0 1.647949 -52.734375 -49.224854 -0.1948 -0.0112 0.2250 -0.0077 0.160650 -0.119855 -0.4723 0 4.0703 0  443 635 738 854 960 986 987 796  1 1 0 0 0 0 0 0 0 100 440 
4.058 2 1 2 0 -0.427246 -62.988281 -47.027588 -0.1418 -0.0458 0.2244 -0.0078 0.163241 -0.112614 -0.4723 0 4.0703 0  451 648 751 862 952 1001 1002 785  1 1 0 0 0 0 0 0 0 100 450 
4.065 2 1 2 0 3.417969 -72.296143 -52.764893 -0.1518 -0.0598 0.2234 -0.0080 0.171014 -0.103085 0.0884 1 4.1800 0  464 671 761 885 992 1038 1022 790  1 1 0 0 0 0 0 4 0 100 510 
4.072 2 1 2 0 -11.566162 -79.772949 -36.346436 -0.0952 -0.2590 0.2222 -0.0082 0.160650 -0.094237 0.1614 1 4.1800 0  465 667 777 886 988 1041 1039 819  1 1 0 0 0 0 0 11 0 100 510 
4.079 2 1 2 0 -7.202148 -103.424072 -5.859375 -0.1253 -0.2088 0.2211 -0.0084 0.155468 -0.084406 0.1278 1 4.1800 0  476 654 789 903 995 1050 1060 829  1 1 0 0 0 0 0 18 0 100 510 
4.086 2 1 2 0 2.532959 -108.062744 22.583008 -0.0956 -0.1474 0.2203 -0.0085 0.155468 -0.072018 0.1767 1 4.1800 0  495 694 809 921 1029 1076 1087 848  1 1 0 0 0 0 0 20 0 100 510 
4.093 2 1 2 0 0.366211 -96.008301 35.003662 -0.1743 -0.2293 0.2189 -0.0087 0.152876 -0.060723 0.1191 1 4.1800 0  508 698 837 943 1060 1103 1115 871  1 1 0 0 0 0 0 20 0 100 510 
4.100 2 1 2 0 -12.542725 -91.949463 48.980713 -0.1598 -0.2478 0.2175 -0.0089 0.150285 -0.050024 0.1862 1 4.1800 0  528 767 853 969 1101 1123 1141 929  1 1 0 0 0 0 0 20 0 100 500 
4.107 2 1 2 0 0.335693 -91.094971 56.091309 -0.1498 -0.2787 0.2157 -0.0092 0.142512 -0.039278 0.2056 1 4.1800 0  531 763 910 992 1106 1155 1163 916  1 1 0 0 0 0 0 20 0 100 510 
4.114 2 1 2 0 1.861572 -96.191406 68.206787 -0.1422 -0.2827 0.2143 -0.0094 0.134738 -0.028005 0.1133 1 4.1800 0  546 797 910 1018 1161 1172 1190 931  1 1 0 0 0 0 0 20 0 100 510 
4.121 2 1 2 0 -3.692627 -99.365234 73.638916 -0.1141 -0.2767 0.2131 -0.0096 0.129556 -0.016187 0.2265 1 4.1800 0  570 805 938 1050 1150 1206 1212 928  1 1 0 0 0 0 0 20 0 100 500 
4.128 2 1 2 0 7.202148 -97.106934 75.866699 -0.0880 -0.2731 0.2119 -0.0097 0.119192 -0.004344 0.1172 1 4.1800 0  566 808 937 1055 1192 1244 1248 977  1 1 0 0 0 0 0 20 0 100 510 
4.135 2 1 2 0 2.868652 -91.064453 76.232910 -0.0767 -0.2434 0.2105 -0.0099 0.111418 0.007124 0.0356 1 4.1800 0  600 851 976 1099 1231 1254 1260 995  1 1 0 0 0 0 0 20 0 100 510 
4.142 2 1 2 0 3.234863 -83.282471 82.061768 -0.0964 -0.1538 0.2097 -0.0100 0.106236 0.017174 -0.0322 1 4.1800 0  619 875 1017 1127 1258 1284 1285 1016  1 1 0 0 0 0 0 20 0 100 510 
4.149 2 1 2 0 6.896973 -69.854736 73.822021 -0.1205 -0.1839 0.2085 -0.0101 0.106236 0.026769 -0.1201 1 4.1800 0  640 894 1025 1154 1291 1315 1310 1030  1 1 0 0 0 0 0 20 0 100 500 
4.156 2 1 2 0 2.838135 -47.424316 53.771973 -0.2113 -0.2434 0.2071 -0.0102 0.103645 0.033898 -0.1759 1 4.1800 0  641 909 1060 1176 1308 1321 1325 1040  1 1 0 0 0 0 0 20 0 100 510 
4.163 2 1 2 0 0.305176 -68.420410 33.599854 -0.1940 -0.2731 0.2055 -0.0104 0.103645 0.041902 -0.1852 1 4.1800 0  628 925 1053 1166 1338 1347 1334 1060  1 1 0 0 0 0 0 20 0 100 500 
4.170 2 1 2 0 0.640869 -98.449707 2.960205 -0.1679 -0.2305 0.2041 -0.0105 0.101054 0.056030 -0.2987 1 4.1800 0  706 948 1081 1224 1358 1372 1367 1082  1 1 0 0 0 0 0 20 0 100 490 
4.177 2 1 2 0 -4.272461 -115.112305 -7.202148 -0.2446 -0.1394 0.2027 -0.0107 0.103645 0.070822 -0.3056 1 4.1800 0  696 969 1108 1237 1373 1405 1396 1103  1 1 0 0 0 0 0 20 0 100 500 
4.184 2 1 2 0 -6.256104 -109.680176 -15.441895 -0.1775 -0.0920 0.2017 -0.0108 0.111418 0.084898 -0.2810 1 4.1800 0  730 1010 1135 1254 1396 1420 1426 1133  1 1 0 0 0 0 0 20 0 100 500 
4.191 2 1 2 0 -6.744385 -82.489014 -39.550781 -0.2036 -0.0948 0.2007 -0.0109 0.114009 0.096501 -0.4839 1 4.1800 0  672 1032 1154 1268 1411 1445 1456 1151  1 1 0 0 0 0 0 20 0 100 500 
4.198 2 1 2 0 -10.620117 -63.903809 -55.206299 -0.1735 -0.1084 0.1997 -0.0110 0.116601 0.105112 -0.2580 1 4.1800 0  743 1045 1168 1271 1420 1459 1473 1177  1 1 0 0 0 0 0 20 0 100 500 
4.205 2 1 2 0 -10.772705 -63.568115 -58.227539 -0.1578 -0.0863 0.1989 -0.0111 0.121783 0.112544 -0.2679 0 4.1800 0  747 1065 1181 1277 1419 1474 1487 1187  1 1 0 0 0 0 4 11 0 100 450 
4.212 2 1 2 0 -11.810303 -63.659668 -58.563232 -0.1663 -0.0606 0.1979 -0.0112 0.124374 0.119931 -0.2679 0 4.1800 0  755 1083 1193 1287 1428 1484 1488 1201  1 1 0 0 0 0 11 0 0 100 460 
4.219 2 1 2 0 -12.084961 -64.239502 -59.356689 -0.1104 -0.0546 0.1975 -0.0113 0.129556 0.127363 -0.2549 0 4.1800 0  741 1099 1214 1303 1427 1491 1512 1218  1 1 0 0 0 0 16 0 0 100 440 
4.226 2 1 2 0 -10.986328 -53.527832 -49.438477 -0.1562 -0.0277 0.1969 -0.0114 0.137330 0.133768 -0.2549 0 4.1800 0  783 1111 1221 1304 1435 1496 1539 1228  1 1 0 0 1 0 20 0 0 100 450 
4.233 2 1 2 0 -12.664795 -37.536621 -49.072266 -0.1518 -0.0185 0.1963 -0.0115 0.145103 0.137752 -0.2549 0 4.1800 0  786 1117 1233 1309 1432 1498 1528 1243  1 1 0 0 1 0 20 0 0 100 450 
4.240 2 1 2 0 -11.749268 -39.093018 -54.534912 -0.1185 -0.0141 0.1960 -0.0115 0.150285 0.142019 -0.2549 0 4.1800 0  774 1126 1247 1283 1437 1503 1519 1255  1 1 0 0 1 0 20 0 0 100 440 
4.247 2 1 2 0 -11.016846 -43.823242 -53.985596 -0.0872 -0.0112 0.1956 -0.0116 0.155468 0.146495 -0.2549 0 4.1800 0  776 1142 1261 1315 1435 1518 1550 1260  1 1 0 0 1 0 20 0 0 100 450 
4.254 2 1 2 0 -11.322021 -38.909912 -45.501709 -0.0892 0.0092 0.1956 -0.0116 0.160650 0.150580 -0.2549 0 4.1800 0  807 1159 1274 1327 1446 1511 1597 1275  1 1 0 0 1 0 20 0 0 100 440 
4.261 2 1 2 0 -8.514404 -28.717041 -36.346436 -0.0972 0.0092 0.1952 -0.0116 0.165832 0.153265 -0.2549 0 4.1800 0  840 1167 1286 1333 1445 1518 1567 1275  1 1 0 0 1 0 20 0 0 100 450 
4.268 2 1 2 0 -8.026123 -26.184082 -28.808594 -0.0823 0.0092 0.1950 -0.0117 0.168423 0.155273 -0.2549 0 4.1800 0  818 1180 1289 1333 1447 1520 1592 1287  1 1 0 0 1 0 20 0 0 100 450 
4.275 2 1 2 0 -5.706787 -25.634766 -25.695801 -0.0390 0.0221 0.1952 -0.0116 0.171014 0.157688 -0.2549 0 4.1800 0  790 1149 1287 1344 1491 1551 1599 1300  1 1 0 0 1 0 20 0 0 100 450 
4.282 2 1 2 0 -4.272461 -15.106201 -19.165039 -0.0382 0.0402 0.1952 -0.0116 0.176197 0.158902 -0.2549 0 4.1800 0  810 1181 1299 1345 1452 1528 1597 1301  1 1 0 0 1 0 20 0 0 100 450 
4.289 2 1 2 0 -3.906250 -8.209229 -11.322021 -0.0289 0.0402 0.1952 -0.0116 0.176197 0.158891 -0.2549 0 4.1800 0  826 1191 1303 1333 1458 1529 1587 1296  1 1 0 0 1 0 20 0 0 100 450 
4.296 2 1 2 0 -3.051758 -10.955811 -10.620117 -0.0193 0.0478 0.1954 -0.0116 0.178788 0.159327 -0.2549 0 4.1800 0  852 1204 1304 1357 1459 1531 1587 1294  1 1 0 0 1 0 20 0 0 100 450 
4.303 2 1 2 0 -4.241943 -12.603760 -17.944336 0.0157 0.0606 0.1958 -0.0115 0.178788 0.160668 -0.2549 0 4.1800 0  813 1168 1310 1331 1432 1532 1605 1299  1 1 0 0 1 0 20 0 0 100 450 
4.310 2 1 2 0 -4.119873 -11.322021 -19.897461 0.0157 0.0558 0.1959 -0.0115 0.181379 0.161624 -0.2549 0 4.1800 0  837 1223 1315 1345 1474 1531 1588 1304  1 1 0 0 1 0 20 0 0 100 450 
4.317 2 1 2 0 -4.455566 -13.305664 -19.836426 0.0157 0.0791 0.1963 -0.0114 0.186561 0.162443 -0.2549 0 4.1800 0  822 1217 1315 1346 1450 1536 1619 1294  1 1 0 0 1 0 20 0 0 100 450 
4.324 2 1 2 0 -6.164551 -12.725830 -20.660400 0.0241 0.1221 0.1969 -0.0113 0.189152 0.163654 -0.2549 0 4.1800 0  814 1221 1321 1354 1470 1534 1607 1321  1 1 0 0 1 0 20 0 0 100 440 
4.331 2 1 2 0 -5.889893 0.854492 -26.428223 0.0414 0.1129 0.1975 -0.0112 0.191743 0.163523 -0.2549 0 4.1800 0  846 1225 1329 1363 1474 1538 1588 1274  1 1 0 0 1 0 20 0 0 100 450 
4.338 2 1 2 0 -7.415771 7.904053 -31.188965 0.0566 0.1398 0.1981 -0.0111 0.194335 0.162224 -0.2549 0 4.1800 0  817 1200 1323 1336 1441 1534 1583 1289  1 1 0 0 1 0 20 0 0 100 450 
4.345 2 1 2 0 -8.148193 11.383057 -34.729004 0.0976 0.1470 0.1991 -0.0109 0.196926 0.160509 -0.2549 0 4.1800 0  828 1239 1330 1358 1463 1538 1613 1297  1 1 0 0 1 0 20 0 0 100 450 
4.352 2 1 2 0 -6.103516 12.695312 -22.369385 0.0900 0.2321 0.2001 -0.0107 0.204699 0.157845 -0.2549 0 4.1800 0  814 1204 1316 1324 1458 1528 1579 1313  1 1 0 0 1 0 20 0 0 100 460 
4.359 2 1 2 0 -6.347656 29.571533 -32.379150 0.0960 0.1791 0.2011 -0.0105 0.207290 0.154602 -0.2549 0 4.1800 0  820 1224 1322 1333 1417 1519 1589 1257  1 1 0 0 1 0 20 0 0 100 450 
4.366 2 1 2 0 -5.249023 32.073975 -33.111572 0.1024 0.1920 0.2021 -0.0103 0.209881 0.149695 -0.2549 0 4.1800 0  817 1150 1311 1324 1453 1514 1579 1295  1 1 0 0 1 0 20 0 0 100 450 
4.373 2 1 2 0 -6.256104 20.111084 -29.510498 0.1181 0.2639 0.2034 -0.0100 0.217655 0.146391 -0.2549 0 4.1800 0  811 1186 1306 1326 1423 1502 1570 1269  1 1 0 0 1 0 20 0 0 100 460 
4.380 2 1 2 0 -6.256104 37.353516 -39.825439 0.1619 0.2281 0.2050 -0.0096 0.217655 0.142458 -0.2549 0 4.1800 0  803 1174 1300 1312 1427 1492 1567 1297  1 1 0 0 1 0 20 0 0 100 450 
4.387 2 1 2 0 -5.371094 48.797607 -29.846191 0.1506 0.2659 0.2062 -0.0094 0.222837 0.135905 -0.2549 0 4.1800 0  797 1196 1285 1301 1404 1474 1555 1251  1 1 0 0 1 0 20 0 0 100 450 
4.394 2 1 2 0 -8.697510 44.219971 -40.740967 0.1856 0.2711 0.2077 -0.0090 0.228019 0.130046 -0.2549 0 4.1800 0  787 1151 1270 1282 1391 1460 1533 1255  1 1 0 0 1 0 20 0 0 100 450 
4.401 2 1 2 0 -0.823975 38.757324 -38.238525 0.2293 0.2787 0.2095 -0.0086 0.230610 0.125187 -0.2549 0 4.1800 0  778 1136 1258 1268 1367 1453 1540 1237  1 1 0 0 1 0 20 0 0 100 460 
4.408 2 1 2 0 -3.265381 56.854248 -41.778564 0.1482 0.3113 0.2111 -0.0082 0.235793 0.118450 -0.2549 0 4.1800 0  771 1116 1227 1259 1380 1429 1520 1227  1 1 0 0 1 0 20 0 0 100 450 
4.415 2 1 2 0 -7.141113 61.370850 -35.003662 0.2217 0.2868 0.2128 -0.0078 0.238384 0.110142 -0.2549 0 4.1800 0  763 1104 1216 1242 1337 1407 1508 1211  1 1 0 0 1 0 20 0 0 100 460 
4.422 2 1 2 0 -1.495361 55.389404 -39.672852 0.2181 0.3289 0.2146 -0.0074 0.246157 0.102918 -0.2549 0 4.1800 0  750 1071 1201 1225 1333 1406 1495 1222  1 1 0 0 1 0 20 0 0 100 450 
4.429 2 1 2 0 -6.896973 59.265137 -46.447754 0.2390 0.2711 0.2165 -0.0069 0.246157 0.095745 -0.0301 0 4.1800 0  773 1071 1198 1228 1308 1381 1472 1206  1 1 0 0 1 0 20 0 0 100 450 
4.436 2 1 2 0 -1.434326 67.260742 -28.167725 0.2169 0.1643 0.2181 -0.0065 0.246157 0.087238 0.0833 1 4.1800 0  730 1020 1160 1189 1309 1396 1485 1211  1 1 0 0 1 0 15 5 0 100 510 
4.443 2 1 2 0 -1.770020 63.018799 -15.563965 0.2305 0.1177 0.2194 -0.0062 0.238384 0.078121 0.2518 1 4.1800 0  714 1036 1137 1179 1279 1352 1434 1185  1 1 0 0 1 0 8 12 0 100 500 
4.450 2 1 2 0 -4.852295 36.743164 22.186279 0.2590 0.1454 0.2206 -0.0059 0.233202 0.069777 0.2365 1 4.1800 0  707 1011 1126 1167 1271 1340 1421 1150  1 1 0 0 1 0 1 19 0 100 500 
4.457 2 1 2 0 14.312744 17.974854 30.181885 0.2928 0.1988 0.2222 -0.0055 0.228019 0.066353 0.2423 1 4.1800 0  704 1025 1124 1171 1273 1353 1419 1156  1 1 0 0 0 0 0 20 0 100 510 
4.464 2 1 2 0 20.019531 19.561768 54.077148 0.3088 0.2695 0.2243 -0.0050 0.225428 0.062014 0.2589 1 4.1800 0  703 997 1103 1158 1259 1314 1409 1136  1 1 0 0 0 0 0 20 0 100 500 
4.471 2 1 2 0 8.178711 34.759521 62.683105 0.3936 0.2868 0.2265 -0.0045 0.222837 0.058141 0.1429 1 4.1800 0  695 995 1103 1158 1286 1330 1396 1134  1 1 0 0 0 0 0 20 0 100 500 
4.478 2 1 2 0 7.904053 48.797607 85.571289 0.2868 0.2659 0.2282 -0.0041 0.220246 0.052032 0.1574 1 4.1800 0  693 965 1092 1155 1260 1325 1383 1128  1 1 0 0 0 0 0 20 0 100 500 
4.485 2 1 2 0 11.138916 65.521240 67.077637 0.3976 0.2205 0.2304 -0.0036 0.212472 0.045139 0.1549 1 4.1800 0  680 956 1102 1142 1259 1302 1364 1083  1 1 0 0 0 0 0 20 0 100 510 
4.492 2 1 2 0 9.429932 73.974609 59.661865 0.3976 0.1900 0.2326 -0.0032 0.204699 0.036646 0.1381 1 4.1800 0  668 938 1047 1134 1253 1314 1347 1088  1 1 0 0 0 0 0 20 0 100 510 
4.499 2 1 2 0 10.040283 71.746826 55.633545 0.3615 0.2418 0.2345 -0.0028 0.199517 0.027801 0.1822 1 4.1800 0  654 924 1038 1126 1234 1262 1335 1069  1 1 0 0 0 0 0 20 0 100 500 
4.506 2 1 2 0 7.354736 69.091797 56.823730 0.3615 0.2554 0.2367 -0.0024 0.191743 0.019370 0.1455 1 4.1800 0  655 909 1007 1116 1236 1272 1318 1063  1 1 0 0 0 0 0 20 0 100 510 
4.513 2 1 2 0 7.781982 71.899414 44.799805 0.3374 0.2362 0.2387 -0.0020 0.186561 0.011117 0.1588 1 4.1800 0  626 897 1010 1104 1228 1270 1300 1045  1 1 0 0 0 0 0 20 0 100 500 
4.520 2 1 2 0 7.934570 69.458008 46.600342 0.3715 0.2574 0.2410 -0.0015 0.181379 0.002478 0.0720 1 4.1800 0  589 870 985 1103 1214 1273 1291 1028  1 1 0 0 0 0 0 20 0 100 500 
4.527 2 1 2 0 3.997803 70.190430 40.893555 0.2639 0.2333 0.2428 -0.0012 0.178788 -0.005724 0.1217 1 4.1800 0  592 863 989 1089 1211 1261 1276 1013  1 1 0 0 0 0 0 20 0 100 500 
4.534 2 1 2 0 3.326416 66.833496 43.182373 0.2807 0.2229 0.2448 -0.0009 0.173605 -0.014086 0.1354 1 4.1800 0  597 842 963 1082 1201 1245 1263 997  1 1 0 0 0 0 0 20 0 100 510 
4.541 2 1 2 0 0.457764 57.617188 39.062500 0.3113 0.1791 0.2464 -0.0006 0.168423 -0.021321 0.1577 1 4.1800 0  586 824 949 1070 1186 1222 1242 974  1 1 0 0 0 0 0 20 0 100 510 
4.548 2 1 2 0 3.784180 35.461426 22.369385 0.2510 0.1847 0.2480 -0.0003 0.163241 -0.025134 0.0150 1 4.1800 0  547 818 942 1085 1186 1235 1237 968  1 1 0 0 0 0 0 20 0 100 510 
4.555 2 1 2 0 1.831055 26.031494 20.263672 0.2996 0.2522 0.2499 0.0000 0.163241 -0.027838 0.1168 1 4.1800 0  565 811 919 1030 1183 1239 1198 962  1 1 0 0 0 0 0 20 0 100 510 
4.562 2 1 2 0 0.701904 22.827148 19.012451 0.3265 0.2972 0.2519 0.0003 0.158059 -0.030529 0.1092 1 4.1800 0  609 801 925 1022 1176 1193 1194 951  1 1 0 0 0 0 0 20 0 100 510 
4.569 2 1 2 0 1.892090 22.247314 20.416260 0.2888 0.2747 0.2539 0.0006 0.158059 -0.033019 0.1044 1 4.1800 0  553 795 915 1020 1172 1214 1192 948  1 1 0 0 0 0 0 20 0 100 510 
4.576 2 1 2 0 0.122070 34.820557 10.406494 0.2827 0.2253 0.2557 0.0009 0.155468 -0.035968 0.0852 1 4.1800 0  562 786 903 1049 1169 1199 1209 938  1 1 0 0 0 0 0 20 0 100 510 
4.583 2 1 2 0 1.617432 42.877197 9.063721 0.2362 0.2016 0.2573 0.0012 0.155468 -0.041093 0.0317 1 4.1800 0  551 766 886 1027 1160 1189 1184 924  1 1 0 0 0 0 0 20 0 100 510 
4.590 2 1 2 0 3.082275 39.764404 5.584717 0.1502 0.1815 0.2585 0.0014 0.155468 -0.045473 0.0277 1 4.1800 0  547 754 873 1015 1148 1180 1173 914  1 1 0 0 0 0 0 20 0 100 500 
4.597 2 1 2 0 1.953125 35.705566 3.814697 0.1225 0.1462 0.2597 0.0015 0.155468 -0.049597 -0.0065 1 4.1800 0  540 744 864 1004 1143 1169 1156 899  1 1 0 0 0 0 0 20 0 100 510 
4.604 2 1 2 0 0.000000 11.108398 -4.852295 0.1470 0.1414 0.2605 0.0017 0.155468 -0.051083 -0.0293 1 4.1800 0  538 735 854 999 1145 1169 1153 899  1 1 0 0 0 0 0 20 0 100 520 
4.611 2 1 2 0 0.061035 -24.414062 -15.625000 0.1414 0.1815 0.2616 0.0019 0.155468 -0.047371 -0.1659 1 4.1800 0  556 736 858 1043 1144 1177 1152 901  1 1 0 0 0 0 0 20 0 100 520 
4.618 2 1 2 0 0.976562 -33.111572 -2.990723 0.1398 0.2345 0.2628 0.0021 0.160650 -0.043331 -0.0156 1 4.1800 0  510 739 867 1005 1158 1184 1176 911  1 1 0 0 0 0 0 20 0 100 510 
4.625 2 1 2 0 -3.234863 -37.658691 -13.153076 0.2048 0.2807 0.2646 0.0023 0.163241 -0.038058 -0.0651 1 4.1800 0  550 746 873 1027 1170 1190 1175 915  1 1 0 0 0 0 0 20 0 100 510 
4.632 2 1 2 0 0.640869 -19.104004 -31.982422 0.2333 0.2016 0.2662 0.0026 0.163241 -0.033912 0.0433 1 3.9954 1  535 752 874 1034 1179 1203 1226 922  1 1 0 0 0 0 0 20 1 100 520 
4.639 2 1 2 0 6.195068 17.517090 -30.731201 0.1458 0.1418 0.2672 0.0028 0.165832 -0.034041 0.0235 1 4.1800 0  535 765 870 1006 1176 1193 1180 928  1 1 0 0 0 0 0 20 0 100 520 
4.646 2 1 2 0 -8.972168 26.123047 -9.307861 0.0843 0.1462 0.2680 0.0029 0.165832 -0.038008 -0.1051 1 4.1800 0  526 728 857 1021 1173 1191 1172 913  1 1 0 0 0 0 0 20 0 100 510 
4.653 2 1 2 0 -1.800537 17.944336 -22.613525 0.0438 0.1040 0.2684 0.0030 0.171014 -0.039947 -0.1200 1 4.1800 0  526 724 853 1014 1180 1193 1166 912  1 1 0 0 0 0 0 20 0 100 510 
4.660 2 1 2 0 -0.366211 -12.451172 -8.331299 0.0245 0.1285 0.2688 0.0030 0.176197 -0.040511 -0.1182 1 4.1800 0  521 722 861 1019 1181 1195 1175 911  1 1 0 0 0 0 0 20 0 100 500 
4.667 2 1 2 0 -1.312256 -58.929443 -27.770996 0.0952 0.1884 0.2698 0.0032 0.178788 -0.030927 -0.1694 1 4.1800 0  551 730 867 1026 1206 1204 1165 938  1 1 0 0 0 0 0 20 0 100 520 
4.674 2 1 2 0 1.647949 -61.370850 -24.108887 0.2125 0.2675 0.2713 0.0035 0.183970 -0.023165 -0.0506 1 4.1800 0  538 768 875 1041 1219 1229 1211 953  1 1 0 0 0 0 0 20 0 100 510 
4.681 2 1 2 0 -5.249023 -42.907715 -37.994385 0.2305 0.2157 0.2729 0.0038 0.183970 -0.015656 -0.1130 1 4.1800 0  533 751 883 1048 1218 1240 1205 958  1 1 0 0 0 0 0 20 0 100 510 
4.688 2 1 2 0 3.021240 8.422852 -33.966064 0.1514 0.1502 0.2739 0.0040 0.186561 -0.014425 -0.0664 1 4.1800 0  544 733 876 1038 1201 1238 1221 957  1 1 0 0 0 0 0 20 0 100 510 
4.695 2 1 2 0 -10.223389 25.238037 -24.963379 0.0783 0.1249 0.2745 0.0041 0.189152 -0.018069 -0.1076 1 4.1800 0  535 734 867 1054 1203 1231 1221 946  1 1 0 0 0 0 0 20 0 100 500 
4.702 2 1 2 0 -3.997803 24.627686 -26.092529 0.0353 0.1080 0.2749 0.0042 0.194335 -0.021544 -0.0995 1 4.1800 0  528 736 866 1047 1211 1229 1220 941  1 1 0 0 0 0 0 20 0 100 510 
4.709 2 1 2 0 6.713867 1.983643 -12.969971 0.0217 0.1273 0.2753 0.0043 0.199517 -0.022697 -0.1292 1 4.1800 0  532 739 867 1052 1208 1219 1208 944  1 1 0 0 0 0 0 20 0 100 500 
4.716 2 1 2 0 -7.080078 -36.590576 -14.984131 0.0791 0.1687 0.2763 0.0045 0.202108 -0.018779 -0.0813 1 4.1800 0  530 756 877 1056 1215 1234 1221 949  1 1 0 0 0 0 0 20 0 100 520 
4.723 2 1 2 0 4.608154 -44.616699 -17.303467 0.1390 0.1892 0.2773 0.0047 0.204699 -0.012674 -0.0803 1 4.1800 0  537 767 890 1070 1220 1248 1232 959  1 1 0 0 0 0 0 20 0 100 510 
4.730 2 1 2 0 -4.669189 -46.936035 -18.707275 0.1687 0.2088 0.2784 0.0049 0.204699 -0.006718 -0.1526 1 4.1800 0  544 758 878 1079 1239 1262 1244 984  1 1 0 0 0 0 0 20 0 100 520 
4.737 2 1 2 0 -2.685547 -25.604248 -25.634766 0.1349 0.1623 0.2794 0.0051 0.207290 -0.001618 -0.1633 1 4.1800 0  551 778 903 1084 1274 1262 1248 969  1 1 0 0 0 0 0 20 0 100 500 
4.744 2 1 2 0 1.403809 2.868652 -30.517578 0.0647 0.1096 0.2800 0.0052 0.209881 -0.001252 -0.1312 1 4.1800 0  540 758 895 1076 1229 1250 1234 968  1 1 0 0 0 0 0 20 0 100 510 
4.751 2 1 2 0 -6.530762 -1.983643 -25.329590 0.0562 0.0819 0.2806 0.0054 0.212472 -0.001505 -0.0736 1 4.1800 0  543 777 902 1076 1221 1247 1239 973  1 1 0 0 0 0 0 20 0 100 510 
4.758 2 1 2 0 3.479004 -11.413574 -27.221680 0.0578 0.0683 0.2810 0.0054 0.212472 -0.000555 -0.1029 1 4.1800 0  542 769 907 1079 1222 1253 1238 1000  1 1 0 0 0 0 0 20 0 100 500 
4.765 2 1 2 0 -2.990723 -31.158447 -12.023926 0.0514 0.1366 0.2816 0.0056 0.215064 0.002051 -0.0187 1 4.1800 0  553 785 911 1078 1202 1252 1246 969  1 1 0 0 0 0 0 20 0 100 500 
4.772 2 1 2 0 -1.220703 -42.419434 -16.052246 0.0578 0.2048 0.2826 0.0058 0.222837 0.006874 -0.1064 1 4.1800 0  559 783 918 1089 1228 1260 1254 990  1 1 0 0 0 0 0 20 0 100 510 
4.779 2 1 2 0 -1.495361 -44.158936 -15.563965 0.1791 0.1892 0.2837 0.0061 0.222837 0.012555 -0.1564 1 4.1800 0  566 780 900 1093 1250 1265 1256 992  1 1 0 0 0 0 0 20 0 100 500 
4.786 2 1 2 0 2.777100 -9.918213 -15.014648 0.1474 0.1265 0.2849 0.0063 0.222837 0.015402 -0.0508 1 4.1800 0  563 792 958 1083 1219 1266 1258 1005  1 1 0 0 0 0 0 20 0 100 500 
4.793 2 1 2 0 -8.178711 8.544922 -10.742188 0.0478 0.0835 0.2851 0.0064 0.225428 0.014345 -0.0922 1 4.1800 0  561 788 931 1089 1227 1253 1254 994  1 1 0 0 0 0 0 20 0 100 500 
4.800 2 1 2 0 -4.028320 -1.342773 -13.366699 0.0305 0.0530 0.2855 0.0065 0.225428 0.014031 -0.0466 1 4.1800 0  556 792 933 1087 1212 1240 1253 982  1 1 0 0 0 0 0 20 0 100 510 
4.807 2 1 2 0 3.784180 -16.876221 -8.605957 0.0305 0.0482 0.2857 0.0065 0.228019 0.015186 -0.0643 1 4.1800 0  562 785 915 1077 1225 1236 1252 975  1 1 0 0 0 0 0 20 0 100 510 
4.814 2 1 2 0 -6.835938 -38.848877 0.701904 0.0321 0.0872 0.2861 0.0066 0.228019 0.018955 0.0259 1 4.1800 0  565 822 930 1083 1211 1236 1252 967  1 1 0 0 0 0 0 20 0 100 510 
4.821 2 1 2 0 4.882812 -55.633545 2.105713 0.2217 0.1153 0.2873 0.0069 0.222837 0.025054 -0.0160 1 4.1800 0  565 816 956 1095 1216 1272 1267 999  1 1 0 0 0 0 0 20 0 100 510 
4.828 2 1 2 0 4.608154 -56.579590 -2.014160 0.2048 0.2205 0.2886 0.0072 0.225428 0.032358 -0.0866 1 4.1800 0  580 819 970 1108 1238 1259 1281 1021  1 1 0 0 0 0 0 20 0 100 500 
4.835 2 1 2 0 4.913330 -18.280029 13.336182 0.1366 0.1454 0.2898 0.0074 0.225428 0.035845 -0.0093 1 4.1800 0  583 833 977 1105 1224 1312 1280 991  1 1 0 0 0 0 0 20 0 100 500 
4.842 2 1 2 0 -3.997803 17.578125 4.394531 0.1064 0.0614 0.2902 0.0075 0.225428 0.034823 0.0016 1 4.1800 0  579 825 966 1099 1217 1250 1266 1002  1 1 0 0 0 0 0 20 0 100 500 
4.849 2 1 2 0 -6.622314 13.671875 22.766113 0.0598 0.0502 0.2904 0.0076 0.222837 0.031284 0.0530 1 4.1800 0  574 831 958 1091 1208 1254 1255 1000  1 1 0 0 0 0 0 20 0 100 500 
4.856 2 1 2 0 9.796143 -2.227783 7.446289 0.0526 0.0265 0.2906 0.0076 0.220246 0.031496 0.0840 1 4.1800 0  573 829 970 1088 1199 1235 1256 1000  1 1 0 0 0 0 0 20 0 100 500 
4.863 2 1 2 0 -4.486084 -37.200928 22.583008 0.1129 0.0241 0.2912 0.0078 0.217655 0.034292 0.0633 1 4.1800 0  581 836 976 1092 1212 1222 1256 1000  1 1 0 0 0 0 0 20 0 100 500 
4.870 2 1 2 0 3.570557 -55.084229 24.749756 0.2402 0.1088 0.2922 0.0080 0.215064 0.040998 0.0405 1 4.1800 0  598 854 978 1108 1225 1251 1270 1016  1 1 0 0 0 0 0 20 0 100 480 
4.877 2 1 2 0 9.460449 -61.157227 15.472412 0.2731 0.2478 0.2939 0.0084 0.212472 0.048787 -0.0582 1 4.1800 0  584 865 1002 1116 1243 1278 1292 1024  1 1 0 0 0 0 0 20 0 100 500 
4.884 2 1 2 0 6.164551 -15.319824 20.874023 0.1723 0.1715 0.2951 0.0086 0.212472 0.053084 0.0113 1 4.1800 0  614 876 988 1121 1247 1286 1300 1017  1 1 0 0 0 0 0 20 0 100 500 
4.891 2 1 2 0 -5.187988 33.599854 13.946533 0.1112 0.0602 0.2959 0.0088 0.212472 0.050290 -0.0750 1 4.1800 0  567 869 993 1107 1231 1298 1297 1021  1 1 0 0 0 0 0 20 0 100 510 
4.898 2 1 2 0 -3.265381 27.526855 26.214600 0.0795 0.0554 0.2961 0.0088 0.209881 0.045512 0.0670 1 4.1800 0  589 855 980 1095 1221 1269 1298 1021  1 1 0 0 0 0 0 20 0 100 500 
4.905 2 1 2 0 12.084961 12.756348 15.686035 0.0735 0.0386 0.2967 0.0089 0.207290 0.043638 0.1083 1 4.1800 0  591 860 963 1085 1216 1273 1298 1028  1 1 0 0 0 0 0 20 0 100 500 
4.912 2 1 2 0 -2.746582 -28.808594 19.256592 0.1631 0.1008 0.2975 0.0091 0.207290 0.046025 0.0545 1 4.1800 0  626 865 971 1116 1225 1277 1313 1032  1 1 0 0 0 0 0 20 0 100 510 
4.919 2 1 2 0 2.807617 -43.701172 23.529053 0.2928 0.1928 0.2990 0.0094 0.202108 0.052028 0.0611 1 4.1800 0  589 866 961 1078 1235 1299 1366 1064  1 1 0 0 0 0 0 20 0 100 500 
4.926 2 1 2 0 7.781982 -50.384521 15.960693 0.3137 0.2434 0.3008 0.0098 0.199517 0.058665 0.0914 1 4.1800 0  620 877 989 1104 1232 1282 1329 1054  1 1 0 0 0 0 0 20 0 100 510 
4.933 2 1 2 0 3.448486 4.150391 16.571045 0.2390 0.1948 0.3022 0.0101 0.196926 0.060586 0.0401 1 4.1800 0  600 885 1001 1102 1241 1291 1368 1055  1 1 0 0 0 0 0 20 0 100 490 
4.940 2 1 2 0 -8.972168 41.290283 17.364502 0.1619 0.0843 0.3032 0.0103 0.194335 0.055738 0.1397 1 4.1800 0  616 863 978 1083 1216 1289 1325 1043  1 1 0 0 0 0 0 20 0 100 500 
4.947 2 1 2 0 -1.953125 38.574219 31.829834 0.1659 0.0904 0.3040 0.0104 0.189152 0.050162 0.2047 1 4.1800 0  604 856 956 1057 1201 1272 1302 1039  1 1 0 0 0 0 0 20 0 100 500 
4.954 2 1 2 0 12.512207 23.651123 17.120361 0.1554 0.0639 0.3045 0.0105 0.186561 0.047443 0.2203 1 4.1800 0  576 832 937 1049 1181 1254 1281 1035  1 1 0 0 0 0 0 20 0 100 500 
4.961 2 1 2 0 -4.486084 -4.882812 44.036865 0.1892 0.0956 0.3055 0.0107 0.183970 0.045155 0.2410 1 4.1800 0  591 833 935 1047 1178 1247 1292 1030  1 1 0 0 0 0 0 20 0 100 510 
4.968 2 1 2 0 5.645752 -28.991699 51.605225 0.2827 0.1498 0.3069 0.0110 0.176197 0.047297 0.2261 1 4.1800 0  616 835 930 1064 1179 1279 1293 1026  1 1 0 0 0 0 0 20 0 100 500 
4.975 2 1 2 0 15.533447 -35.430908 49.774170 0.2996 0.2418 0.3087 0.0113 0.173605 0.051328 0.1913 1 4.1800 0  599 864 934 1043 1205 1291 1313 1052  1 1 0 0 0 0 0 20 0 100 500 
4.982 2 1 2 0 0.640869 -13.275146 50.842285 0.3787 0.2522 0.3109 0.0117 0.165832 0.054917 0.1593 1 4.1800 0  583 828 925 1044 1199 1287 1335 1054  1 1 0 0 0 0 0 20 0 100 510 
4.989 2 1 2 0 9.063721 48.645020 44.677734 0.2193 0.1406 0.3125 0.0119 0.160650 0.051536 0.2103 1 4.1800 0  579 824 910 1050 1179 1260 1278 1030  1 1 0 0 0 0 0 20 0 100 500 
4.996 2 1 2 0 0.152588 61.981201 48.675537 0.2145 0.1337 0.3134 0.0121 0.158059 0.043601 0.1953 1 4.1800 0  556 774 881 1009 1160 1234 1287 1022  1 1 0 0 0 0 0 20 0 100 500 
5.003 2 1 2 0 2.990723 53.070068 49.530029 0.2241 0.1181 0.3148 0.0123 0.155468 0.036357 0.2524 1 4.1800 0  547 764 867 987 1142 1213 1263 1009  1 1 0 0 0 0 0 20 0 100 510 
5.010 2 1 2 0 12.298584 44.158936 50.476074 0.2418 0.1028 0.3158 0.0125 0.147694 0.030224 0.2333 1 4.1800 0  535 747 852 979 1138 1202 1244 1000  1 1 0 0 0 0 0 20 0 100 510 
5.017 2 1 2 0 -0.793457 3.417969 41.748047 0.2362 0.1454 0.3174 0.0127 0.142512 0.030494 0.1792 1 4.1800 0  532 728 858 995 1136 1200 1248 1007  1 1 0 0 0 0 0 20 0 100 510 
5.024 2 1 2 0 5.432129 -7.141113 49.957275 0.3751 0.2868 0.3194 0.0130 0.137330 0.030679 0.1849 1 4.1800 0  532 750 860 1020 1142 1204 1245 1011  1 1 0 0 0 0 0 20 0 100 500 
5.031 2 1 2 0 9.094238 -4.760742 42.999268 0.3137 0.2659 0.3216 0.0133 0.134738 0.032006 0.2159 1 4.1800 0  533 752 869 993 1143 1209 1270 1001  1 1 0 0 0 0 0 20 0 100 500 
